subjectID,age,gender,block_i,trial_i,go_cue,block,fixation_duration,blank_interval,response,rt,correct,inter_trial_interval,focus,Fullscreen,time_elapsed,browser_name,browser_version,os_name,os_version,tablet,mobile,screen_resolution,window_resolution
8krj,null,null,0,1,left,practice,600,0,leftarrow,607,TRUE,1500,focus,yes,59750,Safari,13.1,macOS,10.15.7,undefined,undefined,1440 x 900,1440 x 900
8krj,null,null,0,2,right,practice,600,0,rightarrow,509,TRUE,1500,focus,yes,64626,Safari,13.1,macOS,10.15.7,undefined,undefined,1440 x 900,1440 x 900
8krj,null,null,0,3,left,practice,600,0,leftarrow,429,TRUE,1200,focus,yes,68816,Safari,13.1,macOS,10.15.7,undefined,undefined,1440 x 900,1440 x 900
8krj,null,null,0,4,right,practice,600,0,rightarrow,486,TRUE,1100,focus,yes,72859,Safari,13.1,macOS,10.15.7,undefined,undefined,1440 x 900,1440 x 900
8krj,null,null,0,5,left,practice,600,0,leftarrow,443,TRUE,1000,focus,yes,76662,Safari,13.1,macOS,10.15.7,undefined,undefined,1440 x 900,1440 x 900
8krj,null,null,0,6,right,practice,600,0,rightarrow,477,TRUE,1500,focus,yes,81498,Safari,13.1,macOS,10.15.7,undefined,undefined,1440 x 900,1440 x 900
8krj,null,null,0,7,left,practice,600,0,leftarrow,424,TRUE,1400,focus,yes,86083,Safari,13.1,macOS,10.15.7,undefined,undefined,1440 x 900,1440 x 900
8krj,null,null,0,8,right,practice,600,0,rightarrow,530,TRUE,1000,focus,yes,89972,Safari,13.1,macOS,10.15.7,undefined,undefined,1440 x 900,1440 x 900
8krj,null,null,0,9,left,practice,600,0,leftarrow,413,TRUE,1400,focus,yes,94544,Safari,13.1,macOS,10.15.7,undefined,undefined,1440 x 900,1440 x 900
8krj,null,null,0,10,right,practice,600,0,rightarrow,563,TRUE,1200,focus,yes,98865,Safari,13.1,macOS,10.15.7,undefined,undefined,1440 x 900,1440 x 900
8krj,null,null,0,11,left,practice,600,0,leftarrow,402,TRUE,1000,focus,yes,102625,Safari,13.1,macOS,10.15.7,undefined,undefined,1440 x 900,1440 x 900
8krj,null,null,0,12,right,practice,600,0,rightarrow,387,TRUE,1500,focus,yes,107369,Safari,13.1,macOS,10.15.7,undefined,undefined,1440 x 900,1440 x 900
8krj,null,null,0,13,left,practice,600,0,undefined,-600,FALSE,1400,focus,yes,112530,Safari,13.1,macOS,10.15.7,undefined,undefined,1440 x 900,1440 x 900
8krj,null,null,0,14,right,practice,600,0,undefined,-600,FALSE,1400,focus,yes,117690,Safari,13.1,macOS,10.15.7,undefined,undefined,1440 x 900,1440 x 900
8krj,null,null,0,15,left,practice,600,0,leftarrow,509,TRUE,1100,focus,yes,121756,Safari,13.1,macOS,10.15.7,undefined,undefined,1440 x 900,1440 x 900
8krj,null,null,0,16,right,practice,600,0,rightarrow,282,TRUE,1100,focus,yes,125598,Safari,13.1,macOS,10.15.7,undefined,undefined,1440 x 900,1440 x 900
8krj,null,null,0,17,right,practice,600,0,rightarrow,472,TRUE,1400,focus,yes,130227,Safari,13.1,macOS,10.15.7,undefined,undefined,1440 x 900,1440 x 900
8krj,null,null,0,18,left,practice,600,0,leftarrow,494,TRUE,1400,focus,yes,134880,Safari,13.1,macOS,10.15.7,undefined,undefined,1440 x 900,1440 x 900
8krj,null,null,0,19,left,practice,600,0,leftarrow,847,TRUE,1500,focus,yes,140083,Safari,13.1,macOS,10.15.7,undefined,undefined,1440 x 900,1440 x 900
8krj,null,null,0,20,right,practice,600,0,rightarrow,302,TRUE,1400,focus,yes,144545,Safari,13.1,macOS,10.15.7,undefined,undefined,1440 x 900,1440 x 900
8krj,null,null,1,21,left,fixed-blank,300,300,leftarrow,431,TRUE,1300,focus,yes,163445,Safari,13.1,macOS,10.15.7,undefined,undefined,1440 x 900,1440 x 900
8krj,null,null,1,22,right,fixed-blank,300,300,rightarrow,332,TRUE,1200,focus,yes,166783,Safari,13.1,macOS,10.15.7,undefined,undefined,1440 x 900,1440 x 900
8krj,null,null,1,23,right,fixed-blank,300,300,rightarrow,289,TRUE,1200,focus,yes,170079,Safari,13.1,macOS,10.15.7,undefined,undefined,1440 x 900,1440 x 900
8krj,null,null,1,24,left,fixed-blank,300,300,leftarrow,311,TRUE,1500,focus,yes,173998,Safari,13.1,macOS,10.15.7,undefined,undefined,1440 x 900,1440 x 900
8krj,null,null,1,25,right,fixed-blank,300,300,rightarrow,412,TRUE,1500,focus,yes,178016,Safari,13.1,macOS,10.15.7,undefined,undefined,1440 x 900,1440 x 900
8krj,null,null,1,26,left,fixed-blank,300,300,leftarrow,319,TRUE,1300,focus,yes,181542,Safari,13.1,macOS,10.15.7,undefined,undefined,1440 x 900,1440 x 900
8krj,null,null,1,27,left,fixed-blank,300,300,rightarrow,240,FALSE,1300,focus,yes,184990,Safari,13.1,macOS,10.15.7,undefined,undefined,1440 x 900,1440 x 900
8krj,null,null,1,28,right,fixed-blank,300,300,rightarrow,310,TRUE,1100,focus,yes,188106,Safari,13.1,macOS,10.15.7,undefined,undefined,1440 x 900,1440 x 900
8krj,null,null,1,29,left,fixed-blank,300,300,leftarrow,336,TRUE,1500,focus,yes,192048,Safari,13.1,macOS,10.15.7,undefined,undefined,1440 x 900,1440 x 900
8krj,null,null,1,30,right,fixed-blank,300,300,rightarrow,619,TRUE,1000,focus,yes,195272,Safari,13.1,macOS,10.15.7,undefined,undefined,1440 x 900,1440 x 900
8krj,null,null,1,31,left,fixed-blank,300,300,leftarrow,304,TRUE,1300,focus,yes,198783,Safari,13.1,macOS,10.15.7,undefined,undefined,1440 x 900,1440 x 900
8krj,null,null,1,32,right,fixed-blank,300,300,rightarrow,392,TRUE,1100,focus,yes,201982,Safari,13.1,macOS,10.15.7,undefined,undefined,1440 x 900,1440 x 900
8krj,null,null,1,33,right,fixed-blank,300,300,rightarrow,485,TRUE,1500,focus,yes,206073,Safari,13.1,macOS,10.15.7,undefined,undefined,1440 x 900,1440 x 900
8krj,null,null,1,34,left,fixed-blank,300,300,leftarrow,527,TRUE,1100,focus,yes,209409,Safari,13.1,macOS,10.15.7,undefined,undefined,1440 x 900,1440 x 900
8krj,null,null,1,35,left,fixed-blank,300,300,leftarrow,468,TRUE,1400,focus,yes,213283,Safari,13.1,macOS,10.15.7,undefined,undefined,1440 x 900,1440 x 900
8krj,null,null,1,36,right,fixed-blank,300,300,rightarrow,304,TRUE,1500,focus,yes,217193,Safari,13.1,macOS,10.15.7,undefined,undefined,1440 x 900,1440 x 900
8krj,null,null,1,37,right,fixed-blank,300,300,rightarrow,570,TRUE,1500,focus,yes,221371,Safari,13.1,macOS,10.15.7,undefined,undefined,1440 x 900,1440 x 900
8krj,null,null,1,38,left,fixed-blank,300,300,leftarrow,319,TRUE,1300,focus,yes,224896,Safari,13.1,macOS,10.15.7,undefined,undefined,1440 x 900,1440 x 900
8krj,null,null,1,39,right,fixed-blank,300,300,rightarrow,336,TRUE,1300,focus,yes,228438,Safari,13.1,macOS,10.15.7,undefined,undefined,1440 x 900,1440 x 900
8krj,null,null,1,40,left,fixed-blank,300,300,leftarrow,321,TRUE,1400,focus,yes,232165,Safari,13.1,macOS,10.15.7,undefined,undefined,1440 x 900,1440 x 900
8krj,null,null,1,41,right,fixed-blank,300,300,rightarrow,375,TRUE,1300,focus,yes,235746,Safari,13.1,macOS,10.15.7,undefined,undefined,1440 x 900,1440 x 900
8krj,null,null,1,42,left,fixed-blank,300,300,leftarrow,291,TRUE,1100,focus,yes,238844,Safari,13.1,macOS,10.15.7,undefined,undefined,1440 x 900,1440 x 900
8krj,null,null,1,43,right,fixed-blank,300,300,rightarrow,367,TRUE,1400,focus,yes,242616,Safari,13.1,macOS,10.15.7,undefined,undefined,1440 x 900,1440 x 900
8krj,null,null,1,44,left,fixed-blank,300,300,leftarrow,242,TRUE,1500,focus,yes,246466,Safari,13.1,macOS,10.15.7,undefined,undefined,1440 x 900,1440 x 900
8krj,null,null,1,45,left,fixed-blank,300,300,leftarrow,400,TRUE,1200,focus,yes,249873,Safari,13.1,macOS,10.15.7,undefined,undefined,1440 x 900,1440 x 900
8krj,null,null,1,46,right,fixed-blank,300,300,rightarrow,309,TRUE,1000,focus,yes,252788,Safari,13.1,macOS,10.15.7,undefined,undefined,1440 x 900,1440 x 900
8krj,null,null,1,47,right,fixed-blank,300,300,rightarrow,374,TRUE,1500,focus,yes,256769,Safari,13.1,macOS,10.15.7,undefined,undefined,1440 x 900,1440 x 900
8krj,null,null,1,48,left,fixed-blank,300,300,leftarrow,326,TRUE,1500,focus,yes,260700,Safari,13.1,macOS,10.15.7,undefined,undefined,1440 x 900,1440 x 900
8krj,null,null,1,49,left,fixed-blank,300,300,leftarrow,376,TRUE,1200,focus,yes,264082,Safari,13.1,macOS,10.15.7,undefined,undefined,1440 x 900,1440 x 900
8krj,null,null,1,50,right,fixed-blank,300,300,rightarrow,346,TRUE,1200,focus,yes,267434,Safari,13.1,macOS,10.15.7,undefined,undefined,1440 x 900,1440 x 900
8krj,null,null,1,51,left,fixed-blank,300,300,leftarrow,415,TRUE,1500,focus,yes,271455,Safari,13.1,macOS,10.15.7,undefined,undefined,1440 x 900,1440 x 900
8krj,null,null,1,52,right,fixed-blank,300,300,rightarrow,778,TRUE,1100,focus,yes,275039,Safari,13.1,macOS,10.15.7,undefined,undefined,1440 x 900,1440 x 900
8krj,null,null,1,53,left,fixed-blank,300,300,leftarrow,292,TRUE,1400,focus,yes,278738,Safari,13.1,macOS,10.15.7,undefined,undefined,1440 x 900,1440 x 900
8krj,null,null,1,54,right,fixed-blank,300,300,rightarrow,282,TRUE,1000,focus,yes,281626,Safari,13.1,macOS,10.15.7,undefined,undefined,1440 x 900,1440 x 900
8krj,null,null,1,55,right,fixed-blank,300,300,rightarrow,389,TRUE,1200,focus,yes,285020,Safari,13.1,macOS,10.15.7,undefined,undefined,1440 x 900,1440 x 900
8krj,null,null,1,56,left,fixed-blank,300,300,leftarrow,278,TRUE,1100,focus,yes,288102,Safari,13.1,macOS,10.15.7,undefined,undefined,1440 x 900,1440 x 900
8krj,null,null,1,57,right,fixed-blank,300,300,rightarrow,320,TRUE,1400,focus,yes,291827,Safari,13.1,macOS,10.15.7,undefined,undefined,1440 x 900,1440 x 900
8krj,null,null,1,58,left,fixed-blank,300,300,leftarrow,272,TRUE,1100,focus,yes,294905,Safari,13.1,macOS,10.15.7,undefined,undefined,1440 x 900,1440 x 900
8krj,null,null,1,59,right,fixed-blank,300,300,rightarrow,385,TRUE,1100,focus,yes,298097,Safari,13.1,macOS,10.15.7,undefined,undefined,1440 x 900,1440 x 900
8krj,null,null,1,60,left,fixed-blank,300,300,leftarrow,391,TRUE,1300,focus,yes,301694,Safari,13.1,macOS,10.15.7,undefined,undefined,1440 x 900,1440 x 900
8krj,null,null,1,61,right,fixed-blank,300,300,rightarrow,244,TRUE,1500,focus,yes,305544,Safari,13.1,macOS,10.15.7,undefined,undefined,1440 x 900,1440 x 900
8krj,null,null,1,62,left,fixed-blank,300,300,leftarrow,288,TRUE,1400,focus,yes,309238,Safari,13.1,macOS,10.15.7,undefined,undefined,1440 x 900,1440 x 900
8krj,null,null,1,63,left,fixed-blank,300,300,rightarrow,240,FALSE,1200,focus,yes,312484,Safari,13.1,macOS,10.15.7,undefined,undefined,1440 x 900,1440 x 900
8krj,null,null,1,64,right,fixed-blank,300,300,rightarrow,288,TRUE,1400,focus,yes,316178,Safari,13.1,macOS,10.15.7,undefined,undefined,1440 x 900,1440 x 900
8krj,null,null,1,65,left,fixed-blank,300,300,leftarrow,291,TRUE,1000,focus,yes,319074,Safari,13.1,macOS,10.15.7,undefined,undefined,1440 x 900,1440 x 900
8krj,null,null,1,66,right,fixed-blank,300,300,rightarrow,287,TRUE,1000,focus,yes,321967,Safari,13.1,macOS,10.15.7,undefined,undefined,1440 x 900,1440 x 900
8krj,null,null,1,67,left,fixed-blank,300,300,leftarrow,371,TRUE,1400,focus,yes,325744,Safari,13.1,macOS,10.15.7,undefined,undefined,1440 x 900,1440 x 900
8krj,null,null,1,68,right,fixed-blank,300,300,rightarrow,388,TRUE,1100,focus,yes,328938,Safari,13.1,macOS,10.15.7,undefined,undefined,1440 x 900,1440 x 900
8krj,null,null,1,69,right,fixed-blank,300,300,rightarrow,416,TRUE,1300,focus,yes,332561,Safari,13.1,macOS,10.15.7,undefined,undefined,1440 x 900,1440 x 900
8krj,null,null,1,70,left,fixed-blank,300,300,leftarrow,264,TRUE,1300,focus,yes,336030,Safari,13.1,macOS,10.15.7,undefined,undefined,1440 x 900,1440 x 900
8krj,null,null,2,71,right,varied,600,0,rightarrow,295,TRUE,1500,focus,yes,347883,Safari,13.1,macOS,10.15.7,undefined,undefined,1440 x 900,1440 x 900
8krj,null,null,2,72,left,varied,200,0,leftarrow,370,TRUE,1300,focus,yes,351059,Safari,13.1,macOS,10.15.7,undefined,undefined,1440 x 900,1440 x 900
8krj,null,null,2,73,right,varied,600,0,rightarrow,298,TRUE,1300,focus,yes,354562,Safari,13.1,macOS,10.15.7,undefined,undefined,1440 x 900,1440 x 900
8krj,null,null,2,74,left,varied,600,0,leftarrow,332,TRUE,1300,focus,yes,358101,Safari,13.1,macOS,10.15.7,undefined,undefined,1440 x 900,1440 x 900
8krj,null,null,2,75,right,varied,400,0,rightarrow,272,TRUE,1400,focus,yes,361580,Safari,13.1,macOS,10.15.7,undefined,undefined,1440 x 900,1440 x 900
8krj,null,null,2,76,left,varied,1000,0,leftarrow,316,TRUE,1500,focus,yes,365902,Safari,13.1,macOS,10.15.7,undefined,undefined,1440 x 900,1440 x 900
8krj,null,null,2,77,right,varied,600,0,rightarrow,344,TRUE,1300,focus,yes,369452,Safari,13.1,macOS,10.15.7,undefined,undefined,1440 x 900,1440 x 900
8krj,null,null,2,78,left,varied,400,0,leftarrow,413,TRUE,1300,focus,yes,372872,Safari,13.1,macOS,10.15.7,undefined,undefined,1440 x 900,1440 x 900
8krj,null,null,2,79,right,varied,200,0,rightarrow,330,TRUE,1200,focus,yes,375808,Safari,13.1,macOS,10.15.7,undefined,undefined,1440 x 900,1440 x 900
8krj,null,null,2,80,left,varied,1000,0,leftarrow,268,TRUE,1200,focus,yes,379482,Safari,13.1,macOS,10.15.7,undefined,undefined,1440 x 900,1440 x 900
8krj,null,null,2,81,right,varied,1000,0,rightarrow,380,TRUE,1100,focus,yes,383068,Safari,13.1,macOS,10.15.7,undefined,undefined,1440 x 900,1440 x 900
8krj,null,null,2,82,left,varied,1000,0,leftarrow,307,TRUE,1100,focus,yes,386582,Safari,13.1,macOS,10.15.7,undefined,undefined,1440 x 900,1440 x 900
8krj,null,null,2,83,right,varied,800,0,rightarrow,298,TRUE,1400,focus,yes,390486,Safari,13.1,macOS,10.15.7,undefined,undefined,1440 x 900,1440 x 900
8krj,null,null,2,84,left,varied,800,0,leftarrow,523,TRUE,1500,focus,yes,394817,Safari,13.1,macOS,10.15.7,undefined,undefined,1440 x 900,1440 x 900
8krj,null,null,2,85,right,varied,1000,0,rightarrow,338,TRUE,1300,focus,yes,398761,Safari,13.1,macOS,10.15.7,undefined,undefined,1440 x 900,1440 x 900
8krj,null,null,2,86,left,varied,600,0,leftarrow,341,TRUE,1000,focus,yes,401707,Safari,13.1,macOS,10.15.7,undefined,undefined,1440 x 900,1440 x 900
8krj,null,null,2,87,left,varied,1000,0,leftarrow,500,TRUE,1000,focus,yes,405213,Safari,13.1,macOS,10.15.7,undefined,undefined,1440 x 900,1440 x 900
8krj,null,null,2,88,right,varied,200,0,rightarrow,436,TRUE,1300,focus,yes,408457,Safari,13.1,macOS,10.15.7,undefined,undefined,1440 x 900,1440 x 900
8krj,null,null,2,89,left,varied,600,0,leftarrow,313,TRUE,1000,focus,yes,411377,Safari,13.1,macOS,10.15.7,undefined,undefined,1440 x 900,1440 x 900
8krj,null,null,2,90,right,varied,600,0,rightarrow,338,TRUE,1100,focus,yes,414521,Safari,13.1,macOS,10.15.7,undefined,undefined,1440 x 900,1440 x 900
8krj,null,null,2,91,left,varied,800,0,leftarrow,351,TRUE,1000,focus,yes,417679,Safari,13.1,macOS,10.15.7,undefined,undefined,1440 x 900,1440 x 900
8krj,null,null,2,92,right,varied,400,0,rightarrow,421,TRUE,1500,focus,yes,421506,Safari,13.1,macOS,10.15.7,undefined,undefined,1440 x 900,1440 x 900
8krj,null,null,2,93,right,varied,1000,0,rightarrow,416,TRUE,1000,focus,yes,424930,Safari,13.1,macOS,10.15.7,undefined,undefined,1440 x 900,1440 x 900
8krj,null,null,2,94,left,varied,400,0,leftarrow,327,TRUE,1200,focus,yes,428064,Safari,13.1,macOS,10.15.7,undefined,undefined,1440 x 900,1440 x 900
8krj,null,null,2,95,left,varied,800,0,leftarrow,399,TRUE,1200,focus,yes,431668,Safari,13.1,macOS,10.15.7,undefined,undefined,1440 x 900,1440 x 900
8krj,null,null,2,96,right,varied,400,0,rightarrow,405,TRUE,1400,focus,yes,435280,Safari,13.1,macOS,10.15.7,undefined,undefined,1440 x 900,1440 x 900
8krj,null,null,2,97,right,varied,200,0,rightarrow,358,TRUE,1500,focus,yes,438844,Safari,13.1,macOS,10.15.7,undefined,undefined,1440 x 900,1440 x 900
8krj,null,null,2,98,left,varied,800,0,leftarrow,383,TRUE,1200,focus,yes,442432,Safari,13.1,macOS,10.15.7,undefined,undefined,1440 x 900,1440 x 900
8krj,null,null,2,99,left,varied,600,0,rightarrow,284,FALSE,1400,focus,yes,446123,Safari,13.1,macOS,10.15.7,undefined,undefined,1440 x 900,1440 x 900
8krj,null,null,2,100,right,varied,800,0,rightarrow,327,TRUE,1000,focus,yes,449256,Safari,13.1,macOS,10.15.7,undefined,undefined,1440 x 900,1440 x 900
8krj,null,null,2,101,right,varied,400,0,rightarrow,403,TRUE,1000,focus,yes,452067,Safari,13.1,macOS,10.15.7,undefined,undefined,1440 x 900,1440 x 900
8krj,null,null,2,102,left,varied,800,0,leftarrow,323,TRUE,1500,focus,yes,456196,Safari,13.1,macOS,10.15.7,undefined,undefined,1440 x 900,1440 x 900
8krj,null,null,2,103,right,varied,800,0,rightarrow,361,TRUE,1200,focus,yes,459765,Safari,13.1,macOS,10.15.7,undefined,undefined,1440 x 900,1440 x 900
8krj,null,null,2,104,left,varied,1000,0,leftarrow,338,TRUE,1200,focus,yes,463508,Safari,13.1,macOS,10.15.7,undefined,undefined,1440 x 900,1440 x 900
8krj,null,null,2,105,left,varied,800,0,leftarrow,382,TRUE,1000,focus,yes,466697,Safari,13.1,macOS,10.15.7,undefined,undefined,1440 x 900,1440 x 900
8krj,null,null,2,106,right,varied,200,0,rightarrow,329,TRUE,1200,focus,yes,469631,Safari,13.1,macOS,10.15.7,undefined,undefined,1440 x 900,1440 x 900
8krj,null,null,2,107,left,varied,800,0,leftarrow,363,TRUE,1300,focus,yes,473400,Safari,13.1,macOS,10.15.7,undefined,undefined,1440 x 900,1440 x 900
8krj,null,null,2,108,right,varied,1000,0,rightarrow,351,TRUE,1400,focus,yes,477557,Safari,13.1,macOS,10.15.7,undefined,undefined,1440 x 900,1440 x 900
8krj,null,null,2,109,left,varied,600,0,leftarrow,304,TRUE,1400,focus,yes,481268,Safari,13.1,macOS,10.15.7,undefined,undefined,1440 x 900,1440 x 900
8krj,null,null,2,110,right,varied,600,0,rightarrow,518,TRUE,1500,focus,yes,485393,Safari,13.1,macOS,10.15.7,undefined,undefined,1440 x 900,1440 x 900
8krj,null,null,2,111,left,varied,800,0,leftarrow,334,TRUE,1500,focus,yes,489533,Safari,13.1,macOS,10.15.7,undefined,undefined,1440 x 900,1440 x 900
8krj,null,null,2,112,right,varied,800,0,rightarrow,636,TRUE,1300,focus,yes,493576,Safari,13.1,macOS,10.15.7,undefined,undefined,1440 x 900,1440 x 900
8krj,null,null,2,113,left,varied,200,0,leftarrow,494,TRUE,1100,focus,yes,496477,Safari,13.1,macOS,10.15.7,undefined,undefined,1440 x 900,1440 x 900
8krj,null,null,2,114,right,varied,400,0,rightarrow,340,TRUE,1400,focus,yes,500022,Safari,13.1,macOS,10.15.7,undefined,undefined,1440 x 900,1440 x 900
8krj,null,null,2,115,left,varied,400,0,leftarrow,330,TRUE,1500,focus,yes,503759,Safari,13.1,macOS,10.15.7,undefined,undefined,1440 x 900,1440 x 900
8krj,null,null,2,116,right,varied,600,0,rightarrow,328,TRUE,1400,focus,yes,507494,Safari,13.1,macOS,10.15.7,undefined,undefined,1440 x 900,1440 x 900
8krj,null,null,2,117,right,varied,400,0,rightarrow,410,TRUE,1400,focus,yes,511110,Safari,13.1,macOS,10.15.7,undefined,undefined,1440 x 900,1440 x 900
8krj,null,null,2,118,left,varied,400,0,leftarrow,295,TRUE,1300,focus,yes,514412,Safari,13.1,macOS,10.15.7,undefined,undefined,1440 x 900,1440 x 900
8krj,null,null,2,119,right,varied,200,0,rightarrow,341,TRUE,1300,focus,yes,517560,Safari,13.1,macOS,10.15.7,undefined,undefined,1440 x 900,1440 x 900
8krj,null,null,2,120,left,varied,600,0,leftarrow,374,TRUE,1500,focus,yes,521541,Safari,13.1,macOS,10.15.7,undefined,undefined,1440 x 900,1440 x 900
8krj,null,null,3,121,right,fixed-filled,600,0,undefined,-600,FALSE,1000,focus,yes,595623,Safari,13.1,macOS,10.15.7,undefined,undefined,1440 x 900,1440 x 900
8krj,null,null,3,122,left,fixed-filled,600,0,leftarrow,395,TRUE,1000,focus,yes,599628,Safari,13.1,macOS,10.15.7,undefined,undefined,1440 x 900,1440 x 900
8krj,null,null,3,123,right,fixed-filled,600,0,rightarrow,307,TRUE,1100,focus,yes,602742,Safari,13.1,macOS,10.15.7,undefined,undefined,1440 x 900,1440 x 900
8krj,null,null,3,124,left,fixed-filled,600,0,leftarrow,333,TRUE,1500,focus,yes,606682,Safari,13.1,macOS,10.15.7,undefined,undefined,1440 x 900,1440 x 900
8krj,null,null,3,125,left,fixed-filled,600,0,leftarrow,364,TRUE,1100,focus,yes,609853,Safari,13.1,macOS,10.15.7,undefined,undefined,1440 x 900,1440 x 900
8krj,null,null,3,126,right,fixed-filled,600,0,rightarrow,507,TRUE,1100,focus,yes,613167,Safari,13.1,macOS,10.15.7,undefined,undefined,1440 x 900,1440 x 900
8krj,null,null,3,127,right,fixed-filled,600,0,rightarrow,382,TRUE,1500,focus,yes,617155,Safari,13.1,macOS,10.15.7,undefined,undefined,1440 x 900,1440 x 900
8krj,null,null,3,128,left,fixed-filled,600,0,leftarrow,301,TRUE,1100,focus,yes,620263,Safari,13.1,macOS,10.15.7,undefined,undefined,1440 x 900,1440 x 900
8krj,null,null,3,129,right,fixed-filled,600,0,rightarrow,402,TRUE,1100,focus,yes,623471,Safari,13.1,macOS,10.15.7,undefined,undefined,1440 x 900,1440 x 900
8krj,null,null,3,130,left,fixed-filled,600,0,leftarrow,327,TRUE,1100,focus,yes,626604,Safari,13.1,macOS,10.15.7,undefined,undefined,1440 x 900,1440 x 900
8krj,null,null,3,131,left,fixed-filled,600,0,leftarrow,507,TRUE,1500,focus,yes,630717,Safari,13.1,macOS,10.15.7,undefined,undefined,1440 x 900,1440 x 900
8krj,null,null,3,132,right,fixed-filled,600,0,rightarrow,310,TRUE,1300,focus,yes,634234,Safari,13.1,macOS,10.15.7,undefined,undefined,1440 x 900,1440 x 900
8krj,null,null,3,133,right,fixed-filled,600,0,leftarrow,272,FALSE,1100,focus,yes,637311,Safari,13.1,macOS,10.15.7,undefined,undefined,1440 x 900,1440 x 900
8krj,null,null,3,134,left,fixed-filled,600,0,leftarrow,334,TRUE,1500,focus,yes,642754,Safari,13.1,macOS,10.15.7,undefined,undefined,1440 x 900,1440 x 900
8krj,null,null,3,135,left,fixed-filled,600,0,leftarrow,410,TRUE,1500,focus,yes,646771,Safari,13.1,macOS,10.15.7,undefined,undefined,1440 x 900,1440 x 900
8krj,null,null,3,136,right,fixed-filled,600,0,rightarrow,330,TRUE,1000,focus,yes,649708,Safari,13.1,macOS,10.15.7,undefined,undefined,1440 x 900,1440 x 900
8krj,null,null,3,137,left,fixed-filled,600,0,leftarrow,384,TRUE,1400,focus,yes,653499,Safari,13.1,macOS,10.15.7,undefined,undefined,1440 x 900,1440 x 900
8krj,null,null,3,138,right,fixed-filled,600,0,rightarrow,415,TRUE,1500,focus,yes,657521,Safari,13.1,macOS,10.15.7,undefined,undefined,1440 x 900,1440 x 900
8krj,null,null,3,139,right,fixed-filled,600,0,rightarrow,404,TRUE,1200,focus,yes,660931,Safari,13.1,macOS,10.15.7,undefined,undefined,1440 x 900,1440 x 900
8krj,null,null,3,140,left,fixed-filled,600,0,leftarrow,289,TRUE,1000,focus,yes,663827,Safari,13.1,macOS,10.15.7,undefined,undefined,1440 x 900,1440 x 900
8krj,null,null,3,141,left,fixed-filled,600,0,leftarrow,376,TRUE,1200,focus,yes,667211,Safari,13.1,macOS,10.15.7,undefined,undefined,1440 x 900,1440 x 900
8krj,null,null,3,142,right,fixed-filled,600,0,rightarrow,338,TRUE,1200,focus,yes,670556,Safari,13.1,macOS,10.15.7,undefined,undefined,1440 x 900,1440 x 900
8krj,null,null,3,143,left,fixed-filled,600,0,leftarrow,354,TRUE,1400,focus,yes,674317,Safari,13.1,macOS,10.15.7,undefined,undefined,1440 x 900,1440 x 900
8krj,null,null,3,144,right,fixed-filled,600,0,rightarrow,416,TRUE,1500,focus,yes,678339,Safari,13.1,macOS,10.15.7,undefined,undefined,1440 x 900,1440 x 900
8krj,null,null,3,145,left,fixed-filled,600,0,leftarrow,354,TRUE,1400,focus,yes,682100,Safari,13.1,macOS,10.15.7,undefined,undefined,1440 x 900,1440 x 900
8krj,null,null,3,146,right,fixed-filled,600,0,rightarrow,376,TRUE,1300,focus,yes,685683,Safari,13.1,macOS,10.15.7,undefined,undefined,1440 x 900,1440 x 900
8krj,null,null,3,147,left,fixed-filled,600,0,leftarrow,428,TRUE,1000,focus,yes,688717,Safari,13.1,macOS,10.15.7,undefined,undefined,1440 x 900,1440 x 900
8krj,null,null,3,148,right,fixed-filled,600,0,rightarrow,421,TRUE,1200,focus,yes,692145,Safari,13.1,macOS,10.15.7,undefined,undefined,1440 x 900,1440 x 900
8krj,null,null,3,149,right,fixed-filled,600,0,rightarrow,397,TRUE,1500,focus,yes,696148,Safari,13.1,macOS,10.15.7,undefined,undefined,1440 x 900,1440 x 900
8krj,null,null,3,150,left,fixed-filled,600,0,leftarrow,342,TRUE,1000,focus,yes,699098,Safari,13.1,macOS,10.15.7,undefined,undefined,1440 x 900,1440 x 900
8krj,null,null,3,151,left,fixed-filled,600,0,leftarrow,420,TRUE,1200,focus,yes,702524,Safari,13.1,macOS,10.15.7,undefined,undefined,1440 x 900,1440 x 900
8krj,null,null,3,152,right,fixed-filled,600,0,rightarrow,349,TRUE,1100,focus,yes,705680,Safari,13.1,macOS,10.15.7,undefined,undefined,1440 x 900,1440 x 900
8krj,null,null,3,153,right,fixed-filled,600,0,leftarrow,293,FALSE,1200,focus,yes,708978,Safari,13.1,macOS,10.15.7,undefined,undefined,1440 x 900,1440 x 900
8krj,null,null,3,154,left,fixed-filled,600,0,leftarrow,399,TRUE,1200,focus,yes,712384,Safari,13.1,macOS,10.15.7,undefined,undefined,1440 x 900,1440 x 900
8krj,null,null,3,155,right,fixed-filled,600,0,rightarrow,373,TRUE,1100,focus,yes,715564,Safari,13.1,macOS,10.15.7,undefined,undefined,1440 x 900,1440 x 900
8krj,null,null,3,156,left,fixed-filled,600,0,leftarrow,387,TRUE,1100,focus,yes,718760,Safari,13.1,macOS,10.15.7,undefined,undefined,1440 x 900,1440 x 900
8krj,null,null,3,157,left,fixed-filled,600,0,leftarrow,368,TRUE,1500,focus,yes,722735,Safari,13.1,macOS,10.15.7,undefined,undefined,1440 x 900,1440 x 900
8krj,null,null,3,158,right,fixed-filled,600,0,rightarrow,388,TRUE,1000,focus,yes,725729,Safari,13.1,macOS,10.15.7,undefined,undefined,1440 x 900,1440 x 900
8krj,null,null,3,159,right,fixed-filled,600,0,rightarrow,440,TRUE,1300,focus,yes,729375,Safari,13.1,macOS,10.15.7,undefined,undefined,1440 x 900,1440 x 900
8krj,null,null,3,160,left,fixed-filled,600,0,leftarrow,295,TRUE,1200,focus,yes,732677,Safari,13.1,macOS,10.15.7,undefined,undefined,1440 x 900,1440 x 900
8krj,null,null,3,161,right,fixed-filled,600,0,rightarrow,359,TRUE,1200,focus,yes,736043,Safari,13.1,macOS,10.15.7,undefined,undefined,1440 x 900,1440 x 900
8krj,null,null,3,162,left,fixed-filled,600,0,leftarrow,286,TRUE,1300,focus,yes,739536,Safari,13.1,macOS,10.15.7,undefined,undefined,1440 x 900,1440 x 900
8krj,null,null,3,163,left,fixed-filled,600,0,leftarrow,400,TRUE,1500,focus,yes,743542,Safari,13.1,macOS,10.15.7,undefined,undefined,1440 x 900,1440 x 900
8krj,null,null,3,164,right,fixed-filled,600,0,rightarrow,356,TRUE,1300,focus,yes,747106,Safari,13.1,macOS,10.15.7,undefined,undefined,1440 x 900,1440 x 900
8krj,null,null,3,165,left,fixed-filled,600,0,leftarrow,403,TRUE,1100,focus,yes,750315,Safari,13.1,macOS,10.15.7,undefined,undefined,1440 x 900,1440 x 900
8krj,null,null,3,166,right,fixed-filled,600,0,rightarrow,285,TRUE,1000,focus,yes,753207,Safari,13.1,macOS,10.15.7,undefined,undefined,1440 x 900,1440 x 900
8krj,null,null,3,167,right,fixed-filled,600,0,rightarrow,459,TRUE,1200,focus,yes,756672,Safari,13.1,macOS,10.15.7,undefined,undefined,1440 x 900,1440 x 900
8krj,null,null,3,168,left,fixed-filled,600,0,leftarrow,347,TRUE,1100,focus,yes,759825,Safari,13.1,macOS,10.15.7,undefined,undefined,1440 x 900,1440 x 900
8krj,null,null,3,169,left,fixed-filled,600,0,leftarrow,394,TRUE,1300,focus,yes,763426,Safari,13.1,macOS,10.15.7,undefined,undefined,1440 x 900,1440 x 900
8krj,null,null,3,170,right,fixed-filled,600,0,rightarrow,456,TRUE,1100,focus,yes,766690,Safari,13.1,macOS,10.15.7,undefined,undefined,1440 x 900,1440 x 900
8krj,null,null,4,171,right,fixed-filled,600,0,rightarrow,429,TRUE,1400,focus,yes,786345,Safari,13.1,macOS,10.15.7,undefined,undefined,1440 x 900,1440 x 900
8krj,null,null,4,172,left,fixed-filled,600,0,leftarrow,327,TRUE,1200,focus,yes,789678,Safari,13.1,macOS,10.15.7,undefined,undefined,1440 x 900,1440 x 900
8krj,null,null,4,173,right,fixed-filled,600,0,rightarrow,382,TRUE,1500,focus,yes,793667,Safari,13.1,macOS,10.15.7,undefined,undefined,1440 x 900,1440 x 900
8krj,null,null,4,174,left,fixed-filled,600,0,leftarrow,291,TRUE,1000,focus,yes,796564,Safari,13.1,macOS,10.15.7,undefined,undefined,1440 x 900,1440 x 900
8krj,null,null,4,175,left,fixed-filled,600,0,leftarrow,287,TRUE,1500,focus,yes,800457,Safari,13.1,macOS,10.15.7,undefined,undefined,1440 x 900,1440 x 900
8krj,null,null,4,176,right,fixed-filled,600,0,rightarrow,270,TRUE,1200,focus,yes,803734,Safari,13.1,macOS,10.15.7,undefined,undefined,1440 x 900,1440 x 900
8krj,null,null,4,177,right,fixed-filled,600,0,rightarrow,351,TRUE,1200,focus,yes,807092,Safari,13.1,macOS,10.15.7,undefined,undefined,1440 x 900,1440 x 900
8krj,null,null,4,178,left,fixed-filled,600,0,leftarrow,338,TRUE,1100,focus,yes,810236,Safari,13.1,macOS,10.15.7,undefined,undefined,1440 x 900,1440 x 900
8krj,null,null,4,179,right,fixed-filled,600,0,rightarrow,260,TRUE,1200,focus,yes,813503,Safari,13.1,macOS,10.15.7,undefined,undefined,1440 x 900,1440 x 900
8krj,null,null,4,180,left,fixed-filled,600,0,leftarrow,290,TRUE,1100,focus,yes,816598,Safari,13.1,macOS,10.15.7,undefined,undefined,1440 x 900,1440 x 900
8krj,null,null,4,181,left,fixed-filled,600,0,leftarrow,391,TRUE,1500,focus,yes,820596,Safari,13.1,macOS,10.15.7,undefined,undefined,1440 x 900,1440 x 900
8krj,null,null,4,182,right,fixed-filled,600,0,rightarrow,321,TRUE,1500,focus,yes,824525,Safari,13.1,macOS,10.15.7,undefined,undefined,1440 x 900,1440 x 900
8krj,null,null,4,183,left,fixed-filled,600,0,leftarrow,326,TRUE,1200,focus,yes,827857,Safari,13.1,macOS,10.15.7,undefined,undefined,1440 x 900,1440 x 900
8krj,null,null,4,184,right,fixed-filled,600,0,rightarrow,297,TRUE,1200,focus,yes,831161,Safari,13.1,macOS,10.15.7,undefined,undefined,1440 x 900,1440 x 900
8krj,null,null,4,185,left,fixed-filled,600,0,leftarrow,295,TRUE,1400,focus,yes,834863,Safari,13.1,macOS,10.15.7,undefined,undefined,1440 x 900,1440 x 900
8krj,null,null,4,186,right,fixed-filled,600,0,rightarrow,404,TRUE,1100,focus,yes,838074,Safari,13.1,macOS,10.15.7,undefined,undefined,1440 x 900,1440 x 900
8krj,null,null,4,187,right,fixed-filled,600,0,rightarrow,731,TRUE,1100,focus,yes,841610,Safari,13.1,macOS,10.15.7,undefined,undefined,1440 x 900,1440 x 900
8krj,null,null,4,188,left,fixed-filled,600,0,leftarrow,355,TRUE,1400,focus,yes,845371,Safari,13.1,macOS,10.15.7,undefined,undefined,1440 x 900,1440 x 900
8krj,null,null,4,189,right,fixed-filled,600,0,rightarrow,298,TRUE,1000,focus,yes,848276,Safari,13.1,macOS,10.15.7,undefined,undefined,1440 x 900,1440 x 900
8krj,null,null,4,190,left,fixed-filled,600,0,leftarrow,349,TRUE,1100,focus,yes,851432,Safari,13.1,macOS,10.15.7,undefined,undefined,1440 x 900,1440 x 900
8krj,null,null,4,191,left,fixed-filled,600,0,rightarrow,316,FALSE,1300,focus,yes,854956,Safari,13.1,macOS,10.15.7,undefined,undefined,1440 x 900,1440 x 900
8krj,null,null,4,192,right,fixed-filled,600,0,rightarrow,386,TRUE,1400,focus,yes,858749,Safari,13.1,macOS,10.15.7,undefined,undefined,1440 x 900,1440 x 900
8krj,null,null,4,193,left,fixed-filled,600,0,leftarrow,275,TRUE,1100,focus,yes,861830,Safari,13.1,macOS,10.15.7,undefined,undefined,1440 x 900,1440 x 900
8krj,null,null,4,194,right,fixed-filled,600,0,rightarrow,333,TRUE,1000,focus,yes,864769,Safari,13.1,macOS,10.15.7,undefined,undefined,1440 x 900,1440 x 900
8krj,null,null,4,195,right,fixed-filled,600,0,rightarrow,363,TRUE,1100,focus,yes,867938,Safari,13.1,macOS,10.15.7,undefined,undefined,1440 x 900,1440 x 900
8krj,null,null,4,196,left,fixed-filled,600,0,leftarrow,333,TRUE,1400,focus,yes,871677,Safari,13.1,macOS,10.15.7,undefined,undefined,1440 x 900,1440 x 900
8krj,null,null,4,197,right,fixed-filled,600,0,leftarrow,335,FALSE,1400,focus,yes,875419,Safari,13.1,macOS,10.15.7,undefined,undefined,1440 x 900,1440 x 900
8krj,null,null,4,198,left,fixed-filled,600,0,leftarrow,414,TRUE,1100,focus,yes,878641,Safari,13.1,macOS,10.15.7,undefined,undefined,1440 x 900,1440 x 900
8krj,null,null,4,199,right,fixed-filled,600,0,rightarrow,301,TRUE,1400,focus,yes,882347,Safari,13.1,macOS,10.15.7,undefined,undefined,1440 x 900,1440 x 900
8krj,null,null,4,200,left,fixed-filled,600,0,leftarrow,343,TRUE,1500,focus,yes,886298,Safari,13.1,macOS,10.15.7,undefined,undefined,1440 x 900,1440 x 900
8krj,null,null,4,201,left,fixed-filled,600,0,leftarrow,413,TRUE,1100,focus,yes,889518,Safari,13.1,macOS,10.15.7,undefined,undefined,1440 x 900,1440 x 900
8krj,null,null,4,202,right,fixed-filled,600,0,rightarrow,359,TRUE,1400,focus,yes,893283,Safari,13.1,macOS,10.15.7,undefined,undefined,1440 x 900,1440 x 900
8krj,null,null,4,203,right,fixed-filled,600,0,rightarrow,406,TRUE,1100,focus,yes,896497,Safari,13.1,macOS,10.15.7,undefined,undefined,1440 x 900,1440 x 900
8krj,null,null,4,204,left,fixed-filled,600,0,leftarrow,307,TRUE,1300,focus,yes,900010,Safari,13.1,macOS,10.15.7,undefined,undefined,1440 x 900,1440 x 900
8krj,null,null,4,205,right,fixed-filled,600,0,rightarrow,740,TRUE,1100,focus,yes,903558,Safari,13.1,macOS,10.15.7,undefined,undefined,1440 x 900,1440 x 900
8krj,null,null,4,206,left,fixed-filled,600,0,leftarrow,355,TRUE,1200,focus,yes,906920,Safari,13.1,macOS,10.15.7,undefined,undefined,1440 x 900,1440 x 900
8krj,null,null,4,207,left,fixed-filled,600,0,leftarrow,853,TRUE,1000,focus,yes,910380,Safari,13.1,macOS,10.15.7,undefined,undefined,1440 x 900,1440 x 900
8krj,null,null,4,208,right,fixed-filled,600,0,rightarrow,427,TRUE,1300,focus,yes,914015,Safari,13.1,macOS,10.15.7,undefined,undefined,1440 x 900,1440 x 900
8krj,null,null,4,209,right,fixed-filled,600,0,rightarrow,376,TRUE,1300,focus,yes,917598,Safari,13.1,macOS,10.15.7,undefined,undefined,1440 x 900,1440 x 900
8krj,null,null,4,210,left,fixed-filled,600,0,leftarrow,318,TRUE,1400,focus,yes,921330,Safari,13.1,macOS,10.15.7,undefined,undefined,1440 x 900,1440 x 900
8krj,null,null,4,211,right,fixed-filled,600,0,rightarrow,352,TRUE,1100,focus,yes,924489,Safari,13.1,macOS,10.15.7,undefined,undefined,1440 x 900,1440 x 900
8krj,null,null,4,212,left,fixed-filled,600,0,leftarrow,336,TRUE,1500,focus,yes,928432,Safari,13.1,macOS,10.15.7,undefined,undefined,1440 x 900,1440 x 900
8krj,null,null,4,213,left,fixed-filled,600,0,leftarrow,398,TRUE,1400,focus,yes,932236,Safari,13.1,macOS,10.15.7,undefined,undefined,1440 x 900,1440 x 900
8krj,null,null,4,214,right,fixed-filled,600,0,rightarrow,350,TRUE,1200,focus,yes,935592,Safari,13.1,macOS,10.15.7,undefined,undefined,1440 x 900,1440 x 900
8krj,null,null,4,215,left,fixed-filled,600,0,leftarrow,337,TRUE,1500,focus,yes,939535,Safari,13.1,macOS,10.15.7,undefined,undefined,1440 x 900,1440 x 900
8krj,null,null,4,216,right,fixed-filled,600,0,rightarrow,362,TRUE,1000,focus,yes,942505,Safari,13.1,macOS,10.15.7,undefined,undefined,1440 x 900,1440 x 900
8krj,null,null,4,217,left,fixed-filled,600,0,leftarrow,311,TRUE,1300,focus,yes,946027,Safari,13.1,macOS,10.15.7,undefined,undefined,1440 x 900,1440 x 900
8krj,null,null,4,218,right,fixed-filled,600,0,rightarrow,359,TRUE,1300,focus,yes,949593,Safari,13.1,macOS,10.15.7,undefined,undefined,1440 x 900,1440 x 900
8krj,null,null,4,219,left,fixed-filled,600,0,leftarrow,324,TRUE,1000,focus,yes,952523,Safari,13.1,macOS,10.15.7,undefined,undefined,1440 x 900,1440 x 900
8krj,null,null,4,220,right,fixed-filled,600,0,rightarrow,292,TRUE,1100,focus,yes,955621,Safari,13.1,macOS,10.15.7,undefined,undefined,1440 x 900,1440 x 900
8krj,null,null,5,221,right,fixed-blank,300,300,rightarrow,402,TRUE,1000,focus,yes,984193,Safari,13.1,macOS,10.15.7,undefined,undefined,1440 x 900,1440 x 900
8krj,null,null,5,222,left,fixed-blank,300,300,leftarrow,312,TRUE,1100,focus,yes,987312,Safari,13.1,macOS,10.15.7,undefined,undefined,1440 x 900,1440 x 900
8krj,null,null,5,223,left,fixed-blank,300,300,leftarrow,481,TRUE,1500,focus,yes,991400,Safari,13.1,macOS,10.15.7,undefined,undefined,1440 x 900,1440 x 900
8krj,null,null,5,224,right,fixed-blank,300,300,rightarrow,312,TRUE,1400,focus,yes,995119,Safari,13.1,macOS,10.15.7,undefined,undefined,1440 x 900,1440 x 900
8krj,null,null,5,225,right,fixed-blank,300,300,rightarrow,376,TRUE,1500,focus,yes,999101,Safari,13.1,macOS,10.15.7,undefined,undefined,1440 x 900,1440 x 900
8krj,null,null,5,226,left,fixed-blank,300,300,leftarrow,353,TRUE,1100,focus,yes,1002262,Safari,13.1,macOS,10.15.7,undefined,undefined,1440 x 900,1440 x 900
8krj,null,null,5,227,left,fixed-blank,300,300,leftarrow,384,TRUE,1300,focus,yes,1005854,Safari,13.1,macOS,10.15.7,undefined,undefined,1440 x 900,1440 x 900
8krj,null,null,5,228,right,fixed-blank,300,300,rightarrow,343,TRUE,1200,focus,yes,1009203,Safari,13.1,macOS,10.15.7,undefined,undefined,1440 x 900,1440 x 900
8krj,null,null,5,229,left,fixed-blank,300,300,leftarrow,336,TRUE,1400,focus,yes,1012948,Safari,13.1,macOS,10.15.7,undefined,undefined,1440 x 900,1440 x 900
8krj,null,null,5,230,right,fixed-blank,300,300,rightarrow,346,TRUE,1300,focus,yes,1016502,Safari,13.1,macOS,10.15.7,undefined,undefined,1440 x 900,1440 x 900
8krj,null,null,5,231,right,fixed-blank,300,300,rightarrow,341,TRUE,1400,focus,yes,1020250,Safari,13.1,macOS,10.15.7,undefined,undefined,1440 x 900,1440 x 900
8krj,null,null,5,232,left,fixed-blank,300,300,leftarrow,392,TRUE,1000,focus,yes,1023249,Safari,13.1,macOS,10.15.7,undefined,undefined,1440 x 900,1440 x 900
8krj,null,null,5,233,left,fixed-blank,300,300,leftarrow,400,TRUE,1500,focus,yes,1027256,Safari,13.1,macOS,10.15.7,undefined,undefined,1440 x 900,1440 x 900
8krj,null,null,5,234,right,fixed-blank,300,300,rightarrow,328,TRUE,1000,focus,yes,1030193,Safari,13.1,macOS,10.15.7,undefined,undefined,1440 x 900,1440 x 900
8krj,null,null,5,235,left,fixed-blank,300,300,leftarrow,365,TRUE,1300,focus,yes,1033765,Safari,13.1,macOS,10.15.7,undefined,undefined,1440 x 900,1440 x 900
8krj,null,null,5,236,right,fixed-blank,300,300,rightarrow,358,TRUE,1100,focus,yes,1036930,Safari,13.1,macOS,10.15.7,undefined,undefined,1440 x 900,1440 x 900
8krj,null,null,5,237,left,fixed-blank,300,300,leftarrow,347,TRUE,1400,focus,yes,1040684,Safari,13.1,macOS,10.15.7,undefined,undefined,1440 x 900,1440 x 900
8krj,null,null,5,238,right,fixed-blank,300,300,rightarrow,347,TRUE,1300,focus,yes,1044237,Safari,13.1,macOS,10.15.7,undefined,undefined,1440 x 900,1440 x 900
8krj,null,null,5,239,right,fixed-blank,300,300,rightarrow,364,TRUE,1000,focus,yes,1047207,Safari,13.1,macOS,10.15.7,undefined,undefined,1440 x 900,1440 x 900
8krj,null,null,5,240,left,fixed-blank,300,300,leftarrow,336,TRUE,1100,focus,yes,1050350,Safari,13.1,macOS,10.15.7,undefined,undefined,1440 x 900,1440 x 900
8krj,null,null,5,241,left,fixed-blank,300,300,leftarrow,372,TRUE,1000,focus,yes,1053329,Safari,13.1,macOS,10.15.7,undefined,undefined,1440 x 900,1440 x 900
8krj,null,null,5,242,right,fixed-blank,300,300,rightarrow,331,TRUE,1000,focus,yes,1056267,Safari,13.1,macOS,10.15.7,undefined,undefined,1440 x 900,1440 x 900
8krj,null,null,5,243,right,fixed-blank,300,300,rightarrow,374,TRUE,1300,focus,yes,1059848,Safari,13.1,macOS,10.15.7,undefined,undefined,1440 x 900,1440 x 900
8krj,null,null,5,244,left,fixed-blank,300,300,leftarrow,314,TRUE,1000,focus,yes,1062769,Safari,13.1,macOS,10.15.7,undefined,undefined,1440 x 900,1440 x 900
8krj,null,null,5,245,right,fixed-blank,300,300,rightarrow,539,TRUE,1300,focus,yes,1066514,Safari,13.1,macOS,10.15.7,undefined,undefined,1440 x 900,1440 x 900
8krj,null,null,5,246,left,fixed-blank,300,300,leftarrow,285,TRUE,1100,focus,yes,1069605,Safari,13.1,macOS,10.15.7,undefined,undefined,1440 x 900,1440 x 900
8krj,null,null,5,247,left,fixed-blank,300,300,leftarrow,343,TRUE,1200,focus,yes,1072955,Safari,13.1,macOS,10.15.7,undefined,undefined,1440 x 900,1440 x 900
8krj,null,null,5,248,right,fixed-blank,300,300,rightarrow,280,TRUE,1000,focus,yes,1075842,Safari,13.1,macOS,10.15.7,undefined,undefined,1440 x 900,1440 x 900
8krj,null,null,5,249,left,fixed-blank,300,300,leftarrow,324,TRUE,1400,focus,yes,1079573,Safari,13.1,macOS,10.15.7,undefined,undefined,1440 x 900,1440 x 900
8krj,null,null,5,250,right,fixed-blank,300,300,rightarrow,439,TRUE,1300,focus,yes,1083219,Safari,13.1,macOS,10.15.7,undefined,undefined,1440 x 900,1440 x 900
8krj,null,null,5,251,right,fixed-blank,300,300,rightarrow,391,TRUE,1200,focus,yes,1086617,Safari,13.1,macOS,10.15.7,undefined,undefined,1440 x 900,1440 x 900
8krj,null,null,5,252,left,fixed-blank,300,300,leftarrow,365,TRUE,1400,focus,yes,1090389,Safari,13.1,macOS,10.15.7,undefined,undefined,1440 x 900,1440 x 900
8krj,null,null,5,253,left,fixed-blank,300,300,rightarrow,321,FALSE,1100,focus,yes,1093517,Safari,13.1,macOS,10.15.7,undefined,undefined,1440 x 900,1440 x 900
8krj,null,null,5,254,right,fixed-blank,300,300,rightarrow,376,TRUE,1100,focus,yes,1096700,Safari,13.1,macOS,10.15.7,undefined,undefined,1440 x 900,1440 x 900
8krj,null,null,5,255,right,fixed-blank,300,300,rightarrow,430,TRUE,1500,focus,yes,1100739,Safari,13.1,macOS,10.15.7,undefined,undefined,1440 x 900,1440 x 900
8krj,null,null,5,256,left,fixed-blank,300,300,leftarrow,311,TRUE,1200,focus,yes,1104057,Safari,13.1,macOS,10.15.7,undefined,undefined,1440 x 900,1440 x 900
8krj,null,null,5,257,left,fixed-blank,300,300,leftarrow,368,TRUE,1300,focus,yes,1107632,Safari,13.1,macOS,10.15.7,undefined,undefined,1440 x 900,1440 x 900
8krj,null,null,5,258,right,fixed-blank,300,300,rightarrow,284,TRUE,1000,focus,yes,1110523,Safari,13.1,macOS,10.15.7,undefined,undefined,1440 x 900,1440 x 900
8krj,null,null,5,259,left,fixed-blank,300,300,leftarrow,324,TRUE,1400,focus,yes,1114254,Safari,13.1,macOS,10.15.7,undefined,undefined,1440 x 900,1440 x 900
8krj,null,null,5,260,right,fixed-blank,300,300,rightarrow,356,TRUE,1400,focus,yes,1118018,Safari,13.1,macOS,10.15.7,undefined,undefined,1440 x 900,1440 x 900
8krj,null,null,5,261,right,fixed-blank,300,300,rightarrow,334,TRUE,1300,focus,yes,1121558,Safari,13.1,macOS,10.15.7,undefined,undefined,1440 x 900,1440 x 900
8krj,null,null,5,262,left,fixed-blank,300,300,leftarrow,337,TRUE,1000,focus,yes,1124503,Safari,13.1,macOS,10.15.7,undefined,undefined,1440 x 900,1440 x 900
8krj,null,null,5,263,right,fixed-blank,300,300,rightarrow,553,TRUE,1000,focus,yes,1127664,Safari,13.1,macOS,10.15.7,undefined,undefined,1440 x 900,1440 x 900
8krj,null,null,5,264,left,fixed-blank,300,300,leftarrow,289,TRUE,1200,focus,yes,1130959,Safari,13.1,macOS,10.15.7,undefined,undefined,1440 x 900,1440 x 900
8krj,null,null,5,265,right,fixed-blank,300,300,rightarrow,358,TRUE,1500,focus,yes,1134924,Safari,13.1,macOS,10.15.7,undefined,undefined,1440 x 900,1440 x 900
8krj,null,null,5,266,left,fixed-blank,300,300,leftarrow,384,TRUE,1400,focus,yes,1138715,Safari,13.1,macOS,10.15.7,undefined,undefined,1440 x 900,1440 x 900
8krj,null,null,5,267,right,fixed-blank,300,300,rightarrow,336,TRUE,1500,focus,yes,1142659,Safari,13.1,macOS,10.15.7,undefined,undefined,1440 x 900,1440 x 900
8krj,null,null,5,268,left,fixed-blank,300,300,leftarrow,373,TRUE,1200,focus,yes,1146040,Safari,13.1,macOS,10.15.7,undefined,undefined,1440 x 900,1440 x 900
8krj,null,null,5,269,right,fixed-blank,300,300,rightarrow,355,TRUE,1300,focus,yes,1149601,Safari,13.1,macOS,10.15.7,undefined,undefined,1440 x 900,1440 x 900
8krj,null,null,5,270,left,fixed-blank,300,300,leftarrow,341,TRUE,1500,focus,yes,1153549,Safari,13.1,macOS,10.15.7,undefined,undefined,1440 x 900,1440 x 900
8krj,null,null,6,271,right,varied,200,0,undefined,-200,FALSE,1200,focus,yes,1235716,Safari,13.1,macOS,10.15.7,undefined,undefined,1440 x 900,1440 x 900
8krj,null,null,6,272,left,varied,600,0,undefined,-600,FALSE,1000,focus,yes,1239349,Safari,13.1,macOS,10.15.7,undefined,undefined,1440 x 900,1440 x 900
8krj,null,null,6,273,right,varied,1000,0,rightarrow,368,TRUE,1300,focus,yes,1243324,Safari,13.1,macOS,10.15.7,undefined,undefined,1440 x 900,1440 x 900
8krj,null,null,6,274,left,varied,600,0,leftarrow,300,TRUE,1000,focus,yes,1246231,Safari,13.1,macOS,10.15.7,undefined,undefined,1440 x 900,1440 x 900
8krj,null,null,6,275,left,varied,800,0,leftarrow,393,TRUE,1100,focus,yes,1249632,Safari,13.1,macOS,10.15.7,undefined,undefined,1440 x 900,1440 x 900
8krj,null,null,6,276,right,varied,1000,0,rightarrow,-267,TRUE,1200,focus,yes,1252772,Safari,13.1,macOS,10.15.7,undefined,undefined,1440 x 900,1440 x 900
8krj,null,null,6,277,right,varied,1000,0,rightarrow,425,TRUE,1200,focus,yes,1256604,Safari,13.1,macOS,10.15.7,undefined,undefined,1440 x 900,1440 x 900
8krj,null,null,6,278,left,varied,1000,0,leftarrow,384,TRUE,1200,focus,yes,1260395,Safari,13.1,macOS,10.15.7,undefined,undefined,1440 x 900,1440 x 900
8krj,null,null,6,279,right,varied,800,0,rightarrow,690,TRUE,1000,focus,yes,1263891,Safari,13.1,macOS,10.15.7,undefined,undefined,1440 x 900,1440 x 900
8krj,null,null,6,280,left,varied,1000,0,leftarrow,344,TRUE,1500,focus,yes,1268243,Safari,13.1,macOS,10.15.7,undefined,undefined,1440 x 900,1440 x 900
8krj,null,null,6,281,left,varied,600,0,leftarrow,351,TRUE,1400,focus,yes,1272001,Safari,13.1,macOS,10.15.7,undefined,undefined,1440 x 900,1440 x 900
8krj,null,null,6,282,right,varied,200,0,rightarrow,493,TRUE,1100,focus,yes,1274901,Safari,13.1,macOS,10.15.7,undefined,undefined,1440 x 900,1440 x 900
8krj,null,null,6,283,left,varied,1000,0,leftarrow,315,TRUE,1300,focus,yes,1278824,Safari,13.1,macOS,10.15.7,undefined,undefined,1440 x 900,1440 x 900
8krj,null,null,6,284,right,varied,200,0,rightarrow,481,TRUE,1000,focus,yes,1281511,Safari,13.1,macOS,10.15.7,undefined,undefined,1440 x 900,1440 x 900
8krj,null,null,6,285,left,varied,200,0,leftarrow,333,TRUE,1300,focus,yes,1284650,Safari,13.1,macOS,10.15.7,undefined,undefined,1440 x 900,1440 x 900
8krj,null,null,6,286,right,varied,1000,0,rightarrow,400,TRUE,1200,focus,yes,1288456,Safari,13.1,macOS,10.15.7,undefined,undefined,1440 x 900,1440 x 900
8krj,null,null,6,287,left,varied,600,0,leftarrow,319,TRUE,1000,focus,yes,1291383,Safari,13.1,macOS,10.15.7,undefined,undefined,1440 x 900,1440 x 900
8krj,null,null,6,288,right,varied,800,0,rightarrow,400,TRUE,1100,focus,yes,1294789,Safari,13.1,macOS,10.15.7,undefined,undefined,1440 x 900,1440 x 900
8krj,null,null,6,289,right,varied,800,0,rightarrow,404,TRUE,1200,focus,yes,1298401,Safari,13.1,macOS,10.15.7,undefined,undefined,1440 x 900,1440 x 900
8krj,null,null,6,290,left,varied,200,0,leftarrow,606,TRUE,1000,focus,yes,1301213,Safari,13.1,macOS,10.15.7,undefined,undefined,1440 x 900,1440 x 900
8krj,null,null,6,291,left,varied,800,0,leftarrow,430,TRUE,1300,focus,yes,1305050,Safari,13.1,macOS,10.15.7,undefined,undefined,1440 x 900,1440 x 900
8krj,null,null,6,292,right,varied,400,0,rightarrow,378,TRUE,1300,focus,yes,1308436,Safari,13.1,macOS,10.15.7,undefined,undefined,1440 x 900,1440 x 900
8krj,null,null,6,293,right,varied,800,0,rightarrow,384,TRUE,1300,focus,yes,1312228,Safari,13.1,macOS,10.15.7,undefined,undefined,1440 x 900,1440 x 900
8krj,null,null,6,294,left,varied,1000,0,leftarrow,344,TRUE,1400,focus,yes,1316380,Safari,13.1,macOS,10.15.7,undefined,undefined,1440 x 900,1440 x 900
8krj,null,null,6,295,right,varied,400,0,rightarrow,319,TRUE,1200,focus,yes,1319506,Safari,13.1,macOS,10.15.7,undefined,undefined,1440 x 900,1440 x 900
8krj,null,null,6,296,left,varied,200,0,leftarrow,376,TRUE,1400,focus,yes,1322888,Safari,13.1,macOS,10.15.7,undefined,undefined,1440 x 900,1440 x 900
8krj,null,null,6,297,left,varied,400,0,rightarrow,267,FALSE,1200,focus,yes,1325961,Safari,13.1,macOS,10.15.7,undefined,undefined,1440 x 900,1440 x 900
8krj,null,null,6,298,right,varied,800,0,rightarrow,366,TRUE,1500,focus,yes,1330135,Safari,13.1,macOS,10.15.7,undefined,undefined,1440 x 900,1440 x 900
8krj,null,null,6,299,right,varied,400,0,rightarrow,409,TRUE,1500,focus,yes,1333951,Safari,13.1,macOS,10.15.7,undefined,undefined,1440 x 900,1440 x 900
8krj,null,null,6,300,left,varied,400,0,leftarrow,317,TRUE,1100,focus,yes,1336876,Safari,13.1,macOS,10.15.7,undefined,undefined,1440 x 900,1440 x 900
8krj,null,null,6,301,right,varied,200,0,rightarrow,411,TRUE,1400,focus,yes,1340296,Safari,13.1,macOS,10.15.7,undefined,undefined,1440 x 900,1440 x 900
8krj,null,null,6,302,left,varied,800,0,leftarrow,301,TRUE,1000,focus,yes,1343404,Safari,13.1,macOS,10.15.7,undefined,undefined,1440 x 900,1440 x 900
8krj,null,null,6,303,right,varied,1000,0,rightarrow,551,TRUE,1500,focus,yes,1347964,Safari,13.1,macOS,10.15.7,undefined,undefined,1440 x 900,1440 x 900
8krj,null,null,6,304,left,varied,800,0,leftarrow,325,TRUE,1400,focus,yes,1351896,Safari,13.1,macOS,10.15.7,undefined,undefined,1440 x 900,1440 x 900
8krj,null,null,6,305,left,varied,200,0,leftarrow,353,TRUE,1100,focus,yes,1354655,Safari,13.1,macOS,10.15.7,undefined,undefined,1440 x 900,1440 x 900
8krj,null,null,6,306,right,varied,400,0,rightarrow,371,TRUE,1100,focus,yes,1357634,Safari,13.1,macOS,10.15.7,undefined,undefined,1440 x 900,1440 x 900
8krj,null,null,6,307,right,varied,600,0,rightarrow,418,TRUE,1200,focus,yes,1361059,Safari,13.1,macOS,10.15.7,undefined,undefined,1440 x 900,1440 x 900
8krj,null,null,6,308,left,varied,600,0,leftarrow,321,TRUE,1100,focus,yes,1364187,Safari,13.1,macOS,10.15.7,undefined,undefined,1440 x 900,1440 x 900
8krj,null,null,6,309,left,varied,800,0,leftarrow,355,TRUE,1500,focus,yes,1368348,Safari,13.1,macOS,10.15.7,undefined,undefined,1440 x 900,1440 x 900
8krj,null,null,6,310,right,varied,400,0,rightarrow,383,TRUE,1200,focus,yes,1371537,Safari,13.1,macOS,10.15.7,undefined,undefined,1440 x 900,1440 x 900
8krj,null,null,6,311,left,varied,1000,0,leftarrow,379,TRUE,1100,focus,yes,1375124,Safari,13.1,macOS,10.15.7,undefined,undefined,1440 x 900,1440 x 900
8krj,null,null,6,312,right,varied,200,0,rightarrow,367,TRUE,1000,focus,yes,1377699,Safari,13.1,macOS,10.15.7,undefined,undefined,1440 x 900,1440 x 900
8krj,null,null,6,313,left,varied,200,0,leftarrow,399,TRUE,1500,focus,yes,1381306,Safari,13.1,macOS,10.15.7,undefined,undefined,1440 x 900,1440 x 900
8krj,null,null,6,314,right,varied,200,0,rightarrow,398,TRUE,1500,focus,yes,1384911,Safari,13.1,macOS,10.15.7,undefined,undefined,1440 x 900,1440 x 900
8krj,null,null,6,315,right,varied,400,0,rightarrow,408,TRUE,1400,focus,yes,1388527,Safari,13.1,macOS,10.15.7,undefined,undefined,1440 x 900,1440 x 900
8krj,null,null,6,316,left,varied,200,0,leftarrow,406,TRUE,1100,focus,yes,1391342,Safari,13.1,macOS,10.15.7,undefined,undefined,1440 x 900,1440 x 900
8krj,null,null,6,317,left,varied,800,0,leftarrow,391,TRUE,1000,focus,yes,1394539,Safari,13.1,macOS,10.15.7,undefined,undefined,1440 x 900,1440 x 900
8krj,null,null,6,318,right,varied,400,0,rightarrow,343,TRUE,1300,focus,yes,1397889,Safari,13.1,macOS,10.15.7,undefined,undefined,1440 x 900,1440 x 900
8krj,null,null,6,319,left,varied,600,0,leftarrow,280,TRUE,1100,focus,yes,1400976,Safari,13.1,macOS,10.15.7,undefined,undefined,1440 x 900,1440 x 900
8krj,null,null,6,320,right,varied,800,0,rightarrow,402,TRUE,1200,focus,yes,1404585,Safari,13.1,macOS,10.15.7,undefined,undefined,1440 x 900,1440 x 900
