subjectID,age,gender,block_i,trial_i,go_cue,block,fixation_duration,blank_interval,response,rt,correct,inter_trial_interval,focus,Fullscreen,time_elapsed,browser_name,browser_version,os_name,os_version,tablet,mobile,screen_resolution,window_resolution
o5p2,null,null,0,1,left,practice,600,0,leftarrow,627,true,1300,focus,yes,39824,Chrome,89.0,Windows,10,undefined,undefined,1368 x 912,1368 x 912
o5p2,null,null,0,2,right,practice,600,0,rightarrow,330,true,1200,focus,yes,43934,Chrome,89.0,Windows,10,undefined,undefined,1368 x 912,1368 x 912
o5p2,null,null,0,3,right,practice,600,0,rightarrow,384,true,1000,focus,yes,47704,Chrome,89.0,Windows,10,undefined,undefined,1368 x 912,1368 x 912
o5p2,null,null,0,4,left,practice,600,0,leftarrow,293,true,1400,focus,yes,52184,Chrome,89.0,Windows,10,undefined,undefined,1368 x 912,1368 x 912
o5p2,null,null,0,5,right,practice,600,0,rightarrow,296,true,1400,focus,yes,56664,Chrome,89.0,Windows,10,undefined,undefined,1368 x 912,1368 x 912
o5p2,null,null,0,6,left,practice,600,0,leftarrow,406,true,1300,focus,yes,61060,Chrome,89.0,Windows,10,undefined,undefined,1368 x 912,1368 x 912
o5p2,null,null,0,7,right,practice,600,0,rightarrow,361,true,1200,focus,yes,65209,Chrome,89.0,Windows,10,undefined,undefined,1368 x 912,1368 x 912
o5p2,null,null,0,8,left,practice,600,0,leftarrow,337,true,1300,focus,yes,69529,Chrome,89.0,Windows,10,undefined,undefined,1368 x 912,1368 x 912
o5p2,null,null,0,9,right,practice,600,0,rightarrow,310,true,1500,focus,yes,74229,Chrome,89.0,Windows,10,undefined,undefined,1368 x 912,1368 x 912
o5p2,null,null,0,10,left,practice,600,0,leftarrow,438,true,1500,focus,yes,79049,Chrome,89.0,Windows,10,undefined,undefined,1368 x 912,1368 x 912
o5p2,null,null,0,11,left,practice,600,0,rightarrow,319,false,1400,focus,yes,83540,Chrome,89.0,Windows,10,undefined,undefined,1368 x 912,1368 x 912
o5p2,null,null,0,12,right,practice,600,0,rightarrow,378,true,1200,focus,yes,87699,Chrome,89.0,Windows,10,undefined,undefined,1368 x 912,1368 x 912
o5p2,null,null,0,13,left,practice,600,0,leftarrow,399,true,1300,focus,yes,92090,Chrome,89.0,Windows,10,undefined,undefined,1368 x 912,1368 x 912
o5p2,null,null,0,14,right,practice,600,0,rightarrow,357,true,1200,focus,yes,96230,Chrome,89.0,Windows,10,undefined,undefined,1368 x 912,1368 x 912
o5p2,null,null,0,15,left,practice,600,0,leftarrow,397,true,1400,focus,yes,100810,Chrome,89.0,Windows,10,undefined,undefined,1368 x 912,1368 x 912
o5p2,null,null,0,16,right,practice,600,0,rightarrow,317,true,1500,focus,yes,105510,Chrome,89.0,Windows,10,undefined,undefined,1368 x 912,1368 x 912
o5p2,null,null,0,17,right,practice,600,0,rightarrow,377,true,1200,focus,yes,109670,Chrome,89.0,Windows,10,undefined,undefined,1368 x 912,1368 x 912
o5p2,null,null,0,18,left,practice,600,0,leftarrow,378,true,1300,focus,yes,114039,Chrome,89.0,Windows,10,undefined,undefined,1368 x 912,1368 x 912
o5p2,null,null,0,19,left,practice,600,0,leftarrow,438,true,1000,focus,yes,117860,Chrome,89.0,Windows,10,undefined,undefined,1368 x 912,1368 x 912
o5p2,null,null,0,20,right,practice,600,0,rightarrow,308,true,1500,focus,yes,122551,Chrome,89.0,Windows,10,undefined,undefined,1368 x 912,1368 x 912
o5p2,null,null,1,21,left,fixed-filled,600,0,leftarrow,355,true,1300,focus,yes,137011,Chrome,89.0,Windows,10,undefined,undefined,1368 x 912,1368 x 912
o5p2,null,null,1,22,right,fixed-filled,600,0,rightarrow,320,true,1300,focus,yes,140561,Chrome,89.0,Windows,10,undefined,undefined,1368 x 912,1368 x 912
o5p2,null,null,1,23,right,fixed-filled,600,0,rightarrow,294,true,1000,focus,yes,143471,Chrome,89.0,Windows,10,undefined,undefined,1368 x 912,1368 x 912
o5p2,null,null,1,24,left,fixed-filled,600,0,leftarrow,338,true,1100,focus,yes,146621,Chrome,89.0,Windows,10,undefined,undefined,1368 x 912,1368 x 912
o5p2,null,null,1,25,left,fixed-filled,600,0,leftarrow,362,true,1000,focus,yes,149601,Chrome,89.0,Windows,10,undefined,undefined,1368 x 912,1368 x 912
o5p2,null,null,1,26,right,fixed-filled,600,0,rightarrow,338,true,1300,focus,yes,153161,Chrome,89.0,Windows,10,undefined,undefined,1368 x 912,1368 x 912
o5p2,null,null,1,27,left,fixed-filled,600,0,leftarrow,346,true,1400,focus,yes,156931,Chrome,89.0,Windows,10,undefined,undefined,1368 x 912,1368 x 912
o5p2,null,null,1,28,right,fixed-filled,600,0,rightarrow,309,true,1500,focus,yes,160851,Chrome,89.0,Windows,10,undefined,undefined,1368 x 912,1368 x 912
o5p2,null,null,1,29,right,fixed-filled,600,0,rightarrow,352,true,1300,focus,yes,164421,Chrome,89.0,Windows,10,undefined,undefined,1368 x 912,1368 x 912
o5p2,null,null,1,30,left,fixed-filled,600,0,leftarrow,354,true,1400,focus,yes,168191,Chrome,89.0,Windows,10,undefined,undefined,1368 x 912,1368 x 912
o5p2,null,null,1,31,right,fixed-filled,600,0,rightarrow,300,true,1400,focus,yes,171911,Chrome,89.0,Windows,10,undefined,undefined,1368 x 912,1368 x 912
o5p2,null,null,1,32,left,fixed-filled,600,0,leftarrow,326,true,1000,focus,yes,174861,Chrome,89.0,Windows,10,undefined,undefined,1368 x 912,1368 x 912
o5p2,null,null,1,33,right,fixed-filled,600,0,rightarrow,315,true,1000,focus,yes,177801,Chrome,89.0,Windows,10,undefined,undefined,1368 x 912,1368 x 912
o5p2,null,null,1,34,left,fixed-filled,600,0,leftarrow,333,true,1300,focus,yes,181341,Chrome,89.0,Windows,10,undefined,undefined,1368 x 912,1368 x 912
o5p2,null,null,1,35,left,fixed-filled,600,0,leftarrow,371,true,1100,focus,yes,184521,Chrome,89.0,Windows,10,undefined,undefined,1368 x 912,1368 x 912
o5p2,null,null,1,36,right,fixed-filled,600,0,rightarrow,516,true,1200,focus,yes,188051,Chrome,89.0,Windows,10,undefined,undefined,1368 x 912,1368 x 912
o5p2,null,null,1,37,left,fixed-filled,600,0,leftarrow,358,true,1300,focus,yes,191621,Chrome,89.0,Windows,10,undefined,undefined,1368 x 912,1368 x 912
o5p2,null,null,1,38,right,fixed-filled,600,0,rightarrow,345,true,1300,focus,yes,195191,Chrome,89.0,Windows,10,undefined,undefined,1368 x 912,1368 x 912
o5p2,null,null,1,39,right,fixed-filled,600,0,rightarrow,371,true,1300,focus,yes,198791,Chrome,89.0,Windows,10,undefined,undefined,1368 x 912,1368 x 912
o5p2,null,null,1,40,left,fixed-filled,600,0,leftarrow,350,true,1400,focus,yes,202561,Chrome,89.0,Windows,10,undefined,undefined,1368 x 912,1368 x 912
o5p2,null,null,1,41,left,fixed-filled,600,0,leftarrow,404,true,1500,focus,yes,206581,Chrome,89.0,Windows,10,undefined,undefined,1368 x 912,1368 x 912
o5p2,null,null,1,42,right,fixed-filled,600,0,rightarrow,516,true,1000,focus,yes,209721,Chrome,89.0,Windows,10,undefined,undefined,1368 x 912,1368 x 912
o5p2,null,null,1,43,left,fixed-filled,600,0,leftarrow,372,true,1000,focus,yes,213711,Chrome,89.0,Windows,10,undefined,undefined,1368 x 912,1368 x 912
o5p2,null,null,1,44,right,fixed-filled,600,0,rightarrow,330,true,1300,focus,yes,217271,Chrome,89.0,Windows,10,undefined,undefined,1368 x 912,1368 x 912
o5p2,null,null,1,45,right,fixed-filled,600,0,rightarrow,347,true,1400,focus,yes,221041,Chrome,89.0,Windows,10,undefined,undefined,1368 x 912,1368 x 912
o5p2,null,null,1,46,left,fixed-filled,600,0,leftarrow,469,true,1200,focus,yes,224532,Chrome,89.0,Windows,10,undefined,undefined,1368 x 912,1368 x 912
o5p2,null,null,1,47,left,fixed-filled,600,0,leftarrow,403,true,1400,focus,yes,228351,Chrome,89.0,Windows,10,undefined,undefined,1368 x 912,1368 x 912
o5p2,null,null,1,48,right,fixed-filled,600,0,rightarrow,351,true,1400,focus,yes,232121,Chrome,89.0,Windows,10,undefined,undefined,1368 x 912,1368 x 912
o5p2,null,null,1,49,right,fixed-filled,600,0,rightarrow,538,true,1000,focus,yes,235292,Chrome,89.0,Windows,10,undefined,undefined,1368 x 912,1368 x 912
o5p2,null,null,1,50,left,fixed-filled,600,0,leftarrow,387,true,1500,focus,yes,239291,Chrome,89.0,Windows,10,undefined,undefined,1368 x 912,1368 x 912
o5p2,null,null,1,51,right,fixed-filled,600,0,rightarrow,389,true,1100,focus,yes,242511,Chrome,89.0,Windows,10,undefined,undefined,1368 x 912,1368 x 912
o5p2,null,null,1,52,left,fixed-filled,600,0,leftarrow,340,true,1000,focus,yes,245461,Chrome,89.0,Windows,10,undefined,undefined,1368 x 912,1368 x 912
o5p2,null,null,1,53,left,fixed-filled,600,0,leftarrow,484,true,1100,focus,yes,248771,Chrome,89.0,Windows,10,undefined,undefined,1368 x 912,1368 x 912
o5p2,null,null,1,54,right,fixed-filled,600,0,rightarrow,429,true,1400,focus,yes,252611,Chrome,89.0,Windows,10,undefined,undefined,1368 x 912,1368 x 912
o5p2,null,null,1,55,left,fixed-filled,600,0,leftarrow,614,true,1000,focus,yes,255851,Chrome,89.0,Windows,10,undefined,undefined,1368 x 912,1368 x 912
o5p2,null,null,1,56,right,fixed-filled,600,0,rightarrow,395,true,1100,focus,yes,259061,Chrome,89.0,Windows,10,undefined,undefined,1368 x 912,1368 x 912
o5p2,null,null,1,57,left,fixed-filled,600,0,leftarrow,409,true,1400,focus,yes,264302,Chrome,89.0,Windows,10,undefined,undefined,1368 x 912,1368 x 912
o5p2,null,null,1,58,right,fixed-filled,600,0,rightarrow,422,true,1400,focus,yes,268141,Chrome,89.0,Windows,10,undefined,undefined,1368 x 912,1368 x 912
o5p2,null,null,1,59,right,fixed-filled,600,0,rightarrow,430,true,1100,focus,yes,271401,Chrome,89.0,Windows,10,undefined,undefined,1368 x 912,1368 x 912
o5p2,null,null,1,60,left,fixed-filled,600,0,leftarrow,396,true,1500,focus,yes,275423,Chrome,89.0,Windows,10,undefined,undefined,1368 x 912,1368 x 912
o5p2,null,null,1,61,right,fixed-filled,600,0,rightarrow,390,true,1000,focus,yes,278421,Chrome,89.0,Windows,10,undefined,undefined,1368 x 912,1368 x 912
o5p2,null,null,1,62,left,fixed-filled,600,0,leftarrow,332,true,1200,focus,yes,281772,Chrome,89.0,Windows,10,undefined,undefined,1368 x 912,1368 x 912
o5p2,null,null,1,63,left,fixed-filled,600,0,leftarrow,450,true,1500,focus,yes,285842,Chrome,89.0,Windows,10,undefined,undefined,1368 x 912,1368 x 912
o5p2,null,null,1,64,right,fixed-filled,600,0,rightarrow,397,true,1200,focus,yes,289252,Chrome,89.0,Windows,10,undefined,undefined,1368 x 912,1368 x 912
o5p2,null,null,1,65,left,fixed-filled,600,0,leftarrow,374,true,1100,focus,yes,292451,Chrome,89.0,Windows,10,undefined,undefined,1368 x 912,1368 x 912
o5p2,null,null,1,66,right,fixed-filled,600,0,rightarrow,346,true,1200,focus,yes,295812,Chrome,89.0,Windows,10,undefined,undefined,1368 x 912,1368 x 912
o5p2,null,null,1,67,left,fixed-filled,600,0,leftarrow,290,true,1100,focus,yes,298922,Chrome,89.0,Windows,10,undefined,undefined,1368 x 912,1368 x 912
o5p2,null,null,1,68,right,fixed-filled,600,0,rightarrow,311,true,1200,focus,yes,302251,Chrome,89.0,Windows,10,undefined,undefined,1368 x 912,1368 x 912
o5p2,null,null,1,69,left,fixed-filled,600,0,leftarrow,335,true,1500,focus,yes,306211,Chrome,89.0,Windows,10,undefined,undefined,1368 x 912,1368 x 912
o5p2,null,null,1,70,right,fixed-filled,600,0,rightarrow,294,true,1400,focus,yes,309931,Chrome,89.0,Windows,10,undefined,undefined,1368 x 912,1368 x 912
o5p2,null,null,2,71,right,fixed-filled,600,0,rightarrow,354,true,1100,focus,yes,347461,Chrome,89.0,Windows,10,undefined,undefined,1368 x 912,1368 x 912
o5p2,null,null,2,72,left,fixed-filled,600,0,leftarrow,344,true,1000,focus,yes,350431,Chrome,89.0,Windows,10,undefined,undefined,1368 x 912,1368 x 912
o5p2,null,null,2,73,right,fixed-filled,600,0,rightarrow,279,true,1000,focus,yes,353343,Chrome,89.0,Windows,10,undefined,undefined,1368 x 912,1368 x 912
o5p2,null,null,2,74,left,fixed-filled,600,0,leftarrow,316,true,1000,focus,yes,356281,Chrome,89.0,Windows,10,undefined,undefined,1368 x 912,1368 x 912
o5p2,null,null,2,75,left,fixed-filled,600,0,leftarrow,348,true,1000,focus,yes,359251,Chrome,89.0,Windows,10,undefined,undefined,1368 x 912,1368 x 912
o5p2,null,null,2,76,right,fixed-filled,600,0,rightarrow,279,true,1100,focus,yes,362352,Chrome,89.0,Windows,10,undefined,undefined,1368 x 912,1368 x 912
o5p2,null,null,2,77,right,fixed-filled,600,0,rightarrow,390,true,1400,focus,yes,366173,Chrome,89.0,Windows,10,undefined,undefined,1368 x 912,1368 x 912
o5p2,null,null,2,78,left,fixed-filled,600,0,leftarrow,339,true,1200,focus,yes,369532,Chrome,89.0,Windows,10,undefined,undefined,1368 x 912,1368 x 912
o5p2,null,null,2,79,left,fixed-filled,600,0,leftarrow,383,true,1300,focus,yes,373141,Chrome,89.0,Windows,10,undefined,undefined,1368 x 912,1368 x 912
o5p2,null,null,2,80,right,fixed-filled,600,0,rightarrow,331,true,1300,focus,yes,376693,Chrome,89.0,Windows,10,undefined,undefined,1368 x 912,1368 x 912
o5p2,null,null,2,81,left,fixed-filled,600,0,leftarrow,526,true,1000,focus,yes,379832,Chrome,89.0,Windows,10,undefined,undefined,1368 x 912,1368 x 912
o5p2,null,null,2,82,right,fixed-filled,600,0,rightarrow,463,true,1100,focus,yes,383123,Chrome,89.0,Windows,10,undefined,undefined,1368 x 912,1368 x 912
o5p2,null,null,2,83,right,fixed-filled,600,0,rightarrow,800,true,1400,focus,yes,387342,Chrome,89.0,Windows,10,undefined,undefined,1368 x 912,1368 x 912
o5p2,null,null,2,84,left,fixed-filled,600,0,leftarrow,369,true,1100,focus,yes,390532,Chrome,89.0,Windows,10,undefined,undefined,1368 x 912,1368 x 912
o5p2,null,null,2,85,left,fixed-filled,600,0,leftarrow,368,true,1300,focus,yes,394123,Chrome,89.0,Windows,10,undefined,undefined,1368 x 912,1368 x 912
o5p2,null,null,2,86,right,fixed-filled,600,0,rightarrow,328,true,1400,focus,yes,397873,Chrome,89.0,Windows,10,undefined,undefined,1368 x 912,1368 x 912
o5p2,null,null,2,87,right,fixed-filled,600,0,leftarrow,315,false,1300,focus,yes,401402,Chrome,89.0,Windows,10,undefined,undefined,1368 x 912,1368 x 912
o5p2,null,null,2,88,left,fixed-filled,600,0,leftarrow,412,true,1500,focus,yes,406943,Chrome,89.0,Windows,10,undefined,undefined,1368 x 912,1368 x 912
o5p2,null,null,2,89,right,fixed-filled,600,0,rightarrow,436,true,1500,focus,yes,411003,Chrome,89.0,Windows,10,undefined,undefined,1368 x 912,1368 x 912
o5p2,null,null,2,90,left,fixed-filled,600,0,leftarrow,450,true,1500,focus,yes,415072,Chrome,89.0,Windows,10,undefined,undefined,1368 x 912,1368 x 912
o5p2,null,null,2,91,right,fixed-filled,600,0,rightarrow,338,true,1000,focus,yes,418022,Chrome,89.0,Windows,10,undefined,undefined,1368 x 912,1368 x 912
o5p2,null,null,2,92,left,fixed-filled,600,0,leftarrow,323,true,1000,focus,yes,420962,Chrome,89.0,Windows,10,undefined,undefined,1368 x 912,1368 x 912
o5p2,null,null,2,93,left,fixed-filled,600,0,leftarrow,372,true,1100,focus,yes,424154,Chrome,89.0,Windows,10,undefined,undefined,1368 x 912,1368 x 912
o5p2,null,null,2,94,right,fixed-filled,600,0,rightarrow,357,true,1100,focus,yes,427344,Chrome,89.0,Windows,10,undefined,undefined,1368 x 912,1368 x 912
o5p2,null,null,2,95,left,fixed-filled,600,0,leftarrow,365,true,1200,focus,yes,430723,Chrome,89.0,Windows,10,undefined,undefined,1368 x 912,1368 x 912
o5p2,null,null,2,96,right,fixed-filled,600,0,rightarrow,335,true,1100,focus,yes,433883,Chrome,89.0,Windows,10,undefined,undefined,1368 x 912,1368 x 912
o5p2,null,null,2,97,right,fixed-filled,600,0,rightarrow,378,true,1000,focus,yes,436873,Chrome,89.0,Windows,10,undefined,undefined,1368 x 912,1368 x 912
o5p2,null,null,2,98,left,fixed-filled,600,0,leftarrow,395,true,1300,focus,yes,440494,Chrome,89.0,Windows,10,undefined,undefined,1368 x 912,1368 x 912
o5p2,null,null,2,99,right,fixed-filled,600,0,rightarrow,378,true,1500,focus,yes,444483,Chrome,89.0,Windows,10,undefined,undefined,1368 x 912,1368 x 912
o5p2,null,null,2,100,left,fixed-filled,600,0,leftarrow,540,true,1000,focus,yes,447653,Chrome,89.0,Windows,10,undefined,undefined,1368 x 912,1368 x 912
o5p2,null,null,2,101,right,fixed-filled,600,0,rightarrow,373,true,1100,focus,yes,450853,Chrome,89.0,Windows,10,undefined,undefined,1368 x 912,1368 x 912
o5p2,null,null,2,102,left,fixed-filled,600,0,leftarrow,399,true,1400,focus,yes,454673,Chrome,89.0,Windows,10,undefined,undefined,1368 x 912,1368 x 912
o5p2,null,null,2,103,left,fixed-filled,600,0,leftarrow,390,true,1000,focus,yes,457683,Chrome,89.0,Windows,10,undefined,undefined,1368 x 912,1368 x 912
o5p2,null,null,2,104,right,fixed-filled,600,0,rightarrow,519,true,1200,focus,yes,461223,Chrome,89.0,Windows,10,undefined,undefined,1368 x 912,1368 x 912
o5p2,null,null,2,105,right,fixed-filled,600,0,rightarrow,377,true,1500,focus,yes,465233,Chrome,89.0,Windows,10,undefined,undefined,1368 x 912,1368 x 912
o5p2,null,null,2,106,left,fixed-filled,600,0,leftarrow,362,true,1500,focus,yes,469215,Chrome,89.0,Windows,10,undefined,undefined,1368 x 912,1368 x 912
o5p2,null,null,2,107,left,fixed-filled,600,0,leftarrow,410,true,1200,focus,yes,472653,Chrome,89.0,Windows,10,undefined,undefined,1368 x 912,1368 x 912
o5p2,null,null,2,108,right,fixed-filled,600,0,rightarrow,327,true,1200,focus,yes,476003,Chrome,89.0,Windows,10,undefined,undefined,1368 x 912,1368 x 912
o5p2,null,null,2,109,left,fixed-filled,600,0,leftarrow,498,true,1300,focus,yes,479724,Chrome,89.0,Windows,10,undefined,undefined,1368 x 912,1368 x 912
o5p2,null,null,2,110,right,fixed-filled,600,0,rightarrow,417,true,1400,focus,yes,483554,Chrome,89.0,Windows,10,undefined,undefined,1368 x 912,1368 x 912
o5p2,null,null,2,111,left,fixed-filled,600,0,leftarrow,292,true,1300,focus,yes,487064,Chrome,89.0,Windows,10,undefined,undefined,1368 x 912,1368 x 912
o5p2,null,null,2,112,right,fixed-filled,600,0,rightarrow,363,true,1200,focus,yes,491665,Chrome,89.0,Windows,10,undefined,undefined,1368 x 912,1368 x 912
o5p2,null,null,2,113,left,fixed-filled,600,0,leftarrow,367,true,1400,focus,yes,495454,Chrome,89.0,Windows,10,undefined,undefined,1368 x 912,1368 x 912
o5p2,null,null,2,114,right,fixed-filled,600,0,rightarrow,572,true,1000,focus,yes,498644,Chrome,89.0,Windows,10,undefined,undefined,1368 x 912,1368 x 912
o5p2,null,null,2,115,left,fixed-filled,600,0,leftarrow,414,true,1300,focus,yes,502284,Chrome,89.0,Windows,10,undefined,undefined,1368 x 912,1368 x 912
o5p2,null,null,2,116,right,fixed-filled,600,0,rightarrow,314,true,1500,focus,yes,506214,Chrome,89.0,Windows,10,undefined,undefined,1368 x 912,1368 x 912
o5p2,null,null,2,117,right,fixed-filled,600,0,rightarrow,380,true,1000,focus,yes,509214,Chrome,89.0,Windows,10,undefined,undefined,1368 x 912,1368 x 912
o5p2,null,null,2,118,left,fixed-filled,600,0,leftarrow,333,true,1000,focus,yes,512174,Chrome,89.0,Windows,10,undefined,undefined,1368 x 912,1368 x 912
o5p2,null,null,2,119,left,fixed-filled,600,0,leftarrow,367,true,1400,focus,yes,515954,Chrome,89.0,Windows,10,undefined,undefined,1368 x 912,1368 x 912
o5p2,null,null,2,120,right,fixed-filled,600,0,rightarrow,363,true,1300,focus,yes,519544,Chrome,89.0,Windows,10,undefined,undefined,1368 x 912,1368 x 912
o5p2,null,null,3,121,right,varied,1000,0,rightarrow,332,true,1200,focus,yes,556687,Chrome,89.0,Windows,10,undefined,undefined,1368 x 912,1368 x 912
o5p2,null,null,3,122,left,varied,400,0,leftarrow,343,true,1300,focus,yes,560047,Chrome,89.0,Windows,10,undefined,undefined,1368 x 912,1368 x 912
o5p2,null,null,3,123,left,varied,600,0,leftarrow,415,true,1300,focus,yes,563677,Chrome,89.0,Windows,10,undefined,undefined,1368 x 912,1368 x 912
o5p2,null,null,3,124,right,varied,200,0,rightarrow,379,true,1300,focus,yes,566867,Chrome,89.0,Windows,10,undefined,undefined,1368 x 912,1368 x 912
o5p2,null,null,3,125,left,varied,400,0,leftarrow,336,true,1400,focus,yes,570416,Chrome,89.0,Windows,10,undefined,undefined,1368 x 912,1368 x 912
o5p2,null,null,3,126,right,varied,600,0,rightarrow,284,true,1500,focus,yes,574327,Chrome,89.0,Windows,10,undefined,undefined,1368 x 912,1368 x 912
o5p2,null,null,3,127,left,varied,400,0,leftarrow,397,true,1200,focus,yes,577547,Chrome,89.0,Windows,10,undefined,undefined,1368 x 912,1368 x 912
o5p2,null,null,3,128,right,varied,200,0,rightarrow,390,true,1100,focus,yes,580358,Chrome,89.0,Windows,10,undefined,undefined,1368 x 912,1368 x 912
o5p2,null,null,3,129,right,varied,600,0,rightarrow,373,true,1100,focus,yes,583547,Chrome,89.0,Windows,10,undefined,undefined,1368 x 912,1368 x 912
o5p2,null,null,3,130,left,varied,200,0,leftarrow,373,true,1300,focus,yes,586747,Chrome,89.0,Windows,10,undefined,undefined,1368 x 912,1368 x 912
o5p2,null,null,3,131,left,varied,600,0,leftarrow,406,true,1100,focus,yes,589987,Chrome,89.0,Windows,10,undefined,undefined,1368 x 912,1368 x 912
o5p2,null,null,3,132,right,varied,600,0,rightarrow,322,true,1300,focus,yes,593527,Chrome,89.0,Windows,10,undefined,undefined,1368 x 912,1368 x 912
o5p2,null,null,3,133,left,varied,600,0,leftarrow,363,true,1400,focus,yes,597307,Chrome,89.0,Windows,10,undefined,undefined,1368 x 912,1368 x 912
o5p2,null,null,3,134,right,varied,600,0,rightarrow,328,true,1300,focus,yes,600857,Chrome,89.0,Windows,10,undefined,undefined,1368 x 912,1368 x 912
o5p2,null,null,3,135,right,varied,800,0,rightarrow,328,true,1100,focus,yes,604209,Chrome,89.0,Windows,10,undefined,undefined,1368 x 912,1368 x 912
o5p2,null,null,3,136,left,varied,400,0,leftarrow,341,true,1500,focus,yes,607994,Chrome,89.0,Windows,10,undefined,undefined,1368 x 912,1368 x 912
o5p2,null,null,3,137,left,varied,400,0,leftarrow,318,true,1500,focus,yes,611734,Chrome,89.0,Windows,10,undefined,undefined,1368 x 912,1368 x 912
o5p2,null,null,3,138,right,varied,600,0,rightarrow,337,true,1100,focus,yes,614904,Chrome,89.0,Windows,10,undefined,undefined,1368 x 912,1368 x 912
o5p2,null,null,3,139,right,varied,600,0,rightarrow,598,true,1100,focus,yes,618315,Chrome,89.0,Windows,10,undefined,undefined,1368 x 912,1368 x 912
o5p2,null,null,3,140,left,varied,600,0,leftarrow,329,true,1500,focus,yes,622264,Chrome,89.0,Windows,10,undefined,undefined,1368 x 912,1368 x 912
o5p2,null,null,3,141,left,varied,200,0,leftarrow,411,true,1000,focus,yes,624884,Chrome,89.0,Windows,10,undefined,undefined,1368 x 912,1368 x 912
o5p2,null,null,3,142,right,varied,200,0,rightarrow,354,true,1000,focus,yes,627456,Chrome,89.0,Windows,10,undefined,undefined,1368 x 912,1368 x 912
o5p2,null,null,3,143,right,varied,1000,0,rightarrow,326,true,1000,focus,yes,630795,Chrome,89.0,Windows,10,undefined,undefined,1368 x 912,1368 x 912
o5p2,null,null,3,144,left,varied,800,0,leftarrow,412,true,1300,focus,yes,634625,Chrome,89.0,Windows,10,undefined,undefined,1368 x 912,1368 x 912
o5p2,null,null,3,145,left,varied,600,0,leftarrow,400,true,1300,focus,yes,638255,Chrome,89.0,Windows,10,undefined,undefined,1368 x 912,1368 x 912
o5p2,null,null,3,146,right,varied,400,0,rightarrow,293,true,1000,focus,yes,640975,Chrome,89.0,Windows,10,undefined,undefined,1368 x 912,1368 x 912
o5p2,null,null,3,147,right,varied,200,0,rightarrow,377,true,1500,focus,yes,644566,Chrome,89.0,Windows,10,undefined,undefined,1368 x 912,1368 x 912
o5p2,null,null,3,148,left,varied,400,0,leftarrow,354,true,1500,focus,yes,648335,Chrome,89.0,Windows,10,undefined,undefined,1368 x 912,1368 x 912
o5p2,null,null,3,149,left,varied,400,0,leftarrow,420,true,1000,focus,yes,651175,Chrome,89.0,Windows,10,undefined,undefined,1368 x 912,1368 x 912
o5p2,null,null,3,150,right,varied,600,0,rightarrow,310,true,1000,focus,yes,654105,Chrome,89.0,Windows,10,undefined,undefined,1368 x 912,1368 x 912
o5p2,null,null,3,151,right,varied,800,0,rightarrow,363,true,1200,focus,yes,657685,Chrome,89.0,Windows,10,undefined,undefined,1368 x 912,1368 x 912
o5p2,null,null,3,152,left,varied,400,0,leftarrow,318,true,1200,focus,yes,660816,Chrome,89.0,Windows,10,undefined,undefined,1368 x 912,1368 x 912
o5p2,null,null,3,153,left,varied,600,0,leftarrow,371,true,1500,focus,yes,664795,Chrome,89.0,Windows,10,undefined,undefined,1368 x 912,1368 x 912
o5p2,null,null,3,154,right,varied,800,0,rightarrow,366,true,1000,focus,yes,667985,Chrome,89.0,Windows,10,undefined,undefined,1368 x 912,1368 x 912
o5p2,null,null,3,155,left,varied,600,0,leftarrow,519,true,1300,focus,yes,671726,Chrome,89.0,Windows,10,undefined,undefined,1368 x 912,1368 x 912
o5p2,null,null,3,156,right,varied,200,0,rightarrow,408,true,1100,focus,yes,674555,Chrome,89.0,Windows,10,undefined,undefined,1368 x 912,1368 x 912
o5p2,null,null,3,157,right,varied,800,0,rightarrow,351,true,1100,focus,yes,677935,Chrome,89.0,Windows,10,undefined,undefined,1368 x 912,1368 x 912
o5p2,null,null,3,158,left,varied,1000,0,leftarrow,331,true,1400,focus,yes,682086,Chrome,89.0,Windows,10,undefined,undefined,1368 x 912,1368 x 912
o5p2,null,null,3,159,right,varied,1000,0,rightarrow,336,true,1300,focus,yes,686046,Chrome,89.0,Windows,10,undefined,undefined,1368 x 912,1368 x 912
o5p2,null,null,3,160,left,varied,400,0,leftarrow,376,true,1000,focus,yes,688846,Chrome,89.0,Windows,10,undefined,undefined,1368 x 912,1368 x 912
o5p2,null,null,3,161,left,varied,400,0,leftarrow,417,true,1400,focus,yes,692486,Chrome,89.0,Windows,10,undefined,undefined,1368 x 912,1368 x 912
o5p2,null,null,3,162,right,varied,600,0,rightarrow,353,true,1200,focus,yes,695856,Chrome,89.0,Windows,10,undefined,undefined,1368 x 912,1368 x 912
o5p2,null,null,3,163,left,varied,800,0,leftarrow,324,true,1300,focus,yes,699616,Chrome,89.0,Windows,10,undefined,undefined,1368 x 912,1368 x 912
o5p2,null,null,3,164,right,varied,600,0,rightarrow,317,true,1300,focus,yes,703158,Chrome,89.0,Windows,10,undefined,undefined,1368 x 912,1368 x 912
o5p2,null,null,3,165,right,varied,800,0,rightarrow,381,true,1400,focus,yes,707156,Chrome,89.0,Windows,10,undefined,undefined,1368 x 912,1368 x 912
o5p2,null,null,3,166,left,varied,800,0,leftarrow,352,true,1400,focus,yes,711136,Chrome,89.0,Windows,10,undefined,undefined,1368 x 912,1368 x 912
o5p2,null,null,3,167,left,varied,600,0,leftarrow,414,true,1400,focus,yes,714986,Chrome,89.0,Windows,10,undefined,undefined,1368 x 912,1368 x 912
o5p2,null,null,3,168,right,varied,600,0,rightarrow,327,true,1000,focus,yes,717935,Chrome,89.0,Windows,10,undefined,undefined,1368 x 912,1368 x 912
o5p2,null,null,3,169,right,varied,1000,0,rightarrow,339,true,1400,focus,yes,722106,Chrome,89.0,Windows,10,undefined,undefined,1368 x 912,1368 x 912
o5p2,null,null,3,170,left,varied,600,0,leftarrow,582,true,1400,focus,yes,726106,Chrome,89.0,Windows,10,undefined,undefined,1368 x 912,1368 x 912
o5p2,null,null,4,171,left,fixed-blank,300,300,leftarrow,309,true,1400,focus,yes,757006,Chrome,89.0,Windows,10,undefined,undefined,1368 x 912,1368 x 912
o5p2,null,null,4,172,right,fixed-blank,300,300,rightarrow,259,true,1000,focus,yes,759885,Chrome,89.0,Windows,10,undefined,undefined,1368 x 912,1368 x 912
o5p2,null,null,4,173,left,fixed-blank,300,300,leftarrow,338,true,1000,focus,yes,762836,Chrome,89.0,Windows,10,undefined,undefined,1368 x 912,1368 x 912
o5p2,null,null,4,174,right,fixed-blank,300,300,rightarrow,390,true,1000,focus,yes,765845,Chrome,89.0,Windows,10,undefined,undefined,1368 x 912,1368 x 912
o5p2,null,null,4,175,left,fixed-blank,300,300,leftarrow,307,true,1500,focus,yes,769776,Chrome,89.0,Windows,10,undefined,undefined,1368 x 912,1368 x 912
o5p2,null,null,4,176,right,fixed-blank,300,300,rightarrow,255,true,1100,focus,yes,772866,Chrome,89.0,Windows,10,undefined,undefined,1368 x 912,1368 x 912
o5p2,null,null,4,177,right,fixed-blank,300,300,rightarrow,348,true,1200,focus,yes,776236,Chrome,89.0,Windows,10,undefined,undefined,1368 x 912,1368 x 912
o5p2,null,null,4,178,left,fixed-blank,300,300,leftarrow,299,true,1200,focus,yes,779556,Chrome,89.0,Windows,10,undefined,undefined,1368 x 912,1368 x 912
o5p2,null,null,4,179,right,fixed-blank,300,300,rightarrow,350,true,1300,focus,yes,783136,Chrome,89.0,Windows,10,undefined,undefined,1368 x 912,1368 x 912
o5p2,null,null,4,180,left,fixed-blank,300,300,leftarrow,402,true,1400,focus,yes,786956,Chrome,89.0,Windows,10,undefined,undefined,1368 x 912,1368 x 912
o5p2,null,null,4,181,left,fixed-blank,300,300,leftarrow,370,true,1200,focus,yes,790346,Chrome,89.0,Windows,10,undefined,undefined,1368 x 912,1368 x 912
o5p2,null,null,4,182,right,fixed-blank,300,300,rightarrow,267,true,1400,focus,yes,794036,Chrome,89.0,Windows,10,undefined,undefined,1368 x 912,1368 x 912
o5p2,null,null,4,183,left,fixed-blank,300,300,leftarrow,543,true,1500,focus,yes,807266,Chrome,89.0,Windows,10,undefined,undefined,1368 x 912,1368 x 912
o5p2,null,null,4,184,right,fixed-blank,300,300,rightarrow,319,true,1200,focus,yes,810606,Chrome,89.0,Windows,10,undefined,undefined,1368 x 912,1368 x 912
o5p2,null,null,4,185,left,fixed-blank,300,300,leftarrow,309,true,1400,focus,yes,814336,Chrome,89.0,Windows,10,undefined,undefined,1368 x 912,1368 x 912
o5p2,null,null,4,186,right,fixed-blank,300,300,rightarrow,290,true,1500,focus,yes,818256,Chrome,89.0,Windows,10,undefined,undefined,1368 x 912,1368 x 912
o5p2,null,null,4,187,right,fixed-blank,300,300,rightarrow,413,true,1500,focus,yes,822296,Chrome,89.0,Windows,10,undefined,undefined,1368 x 912,1368 x 912
o5p2,null,null,4,188,left,fixed-blank,300,300,leftarrow,336,true,1200,focus,yes,825656,Chrome,89.0,Windows,10,undefined,undefined,1368 x 912,1368 x 912
o5p2,null,null,4,189,right,fixed-blank,300,300,rightarrow,287,true,1400,focus,yes,829366,Chrome,89.0,Windows,10,undefined,undefined,1368 x 912,1368 x 912
o5p2,null,null,4,190,left,fixed-blank,300,300,leftarrow,343,true,1400,focus,yes,833136,Chrome,89.0,Windows,10,undefined,undefined,1368 x 912,1368 x 912
o5p2,null,null,4,191,left,fixed-blank,300,300,leftarrow,467,true,1000,focus,yes,836216,Chrome,89.0,Windows,10,undefined,undefined,1368 x 912,1368 x 912
o5p2,null,null,4,192,right,fixed-blank,300,300,rightarrow,252,true,1100,focus,yes,839296,Chrome,89.0,Windows,10,undefined,undefined,1368 x 912,1368 x 912
o5p2,null,null,4,193,left,fixed-blank,300,300,leftarrow,330,true,1500,focus,yes,843256,Chrome,89.0,Windows,10,undefined,undefined,1368 x 912,1368 x 912
o5p2,null,null,4,194,right,fixed-blank,300,300,rightarrow,264,true,1000,focus,yes,846136,Chrome,89.0,Windows,10,undefined,undefined,1368 x 912,1368 x 912
o5p2,null,null,4,195,right,fixed-blank,300,300,rightarrow,398,true,1200,focus,yes,849547,Chrome,89.0,Windows,10,undefined,undefined,1368 x 912,1368 x 912
o5p2,null,null,4,196,left,fixed-blank,300,300,leftarrow,321,true,1300,focus,yes,853096,Chrome,89.0,Windows,10,undefined,undefined,1368 x 912,1368 x 912
o5p2,null,null,4,197,left,fixed-blank,300,300,leftarrow,332,true,1300,focus,yes,856647,Chrome,89.0,Windows,10,undefined,undefined,1368 x 912,1368 x 912
o5p2,null,null,4,198,right,fixed-blank,300,300,rightarrow,329,true,1000,focus,yes,859596,Chrome,89.0,Windows,10,undefined,undefined,1368 x 912,1368 x 912
o5p2,null,null,4,199,right,fixed-blank,300,300,rightarrow,342,true,1500,focus,yes,863557,Chrome,89.0,Windows,10,undefined,undefined,1368 x 912,1368 x 912
o5p2,null,null,4,200,left,fixed-blank,300,300,rightarrow,295,false,1100,focus,yes,866676,Chrome,89.0,Windows,10,undefined,undefined,1368 x 912,1368 x 912
o5p2,null,null,4,201,left,fixed-blank,300,300,leftarrow,397,true,1100,focus,yes,870997,Chrome,89.0,Windows,10,undefined,undefined,1368 x 912,1368 x 912
o5p2,null,null,4,202,right,fixed-blank,300,300,rightarrow,333,true,1200,focus,yes,874347,Chrome,89.0,Windows,10,undefined,undefined,1368 x 912,1368 x 912
o5p2,null,null,4,203,left,fixed-blank,300,300,leftarrow,348,true,1400,focus,yes,878127,Chrome,89.0,Windows,10,undefined,undefined,1368 x 912,1368 x 912
o5p2,null,null,4,204,right,fixed-blank,300,300,rightarrow,298,true,1200,focus,yes,881437,Chrome,89.0,Windows,10,undefined,undefined,1368 x 912,1368 x 912
o5p2,null,null,4,205,left,fixed-blank,300,300,leftarrow,457,true,1000,focus,yes,884518,Chrome,89.0,Windows,10,undefined,undefined,1368 x 912,1368 x 912
o5p2,null,null,4,206,right,fixed-blank,300,300,rightarrow,410,true,1400,focus,yes,888338,Chrome,89.0,Windows,10,undefined,undefined,1368 x 912,1368 x 912
o5p2,null,null,4,207,left,fixed-blank,300,300,leftarrow,423,true,1200,focus,yes,891787,Chrome,89.0,Windows,10,undefined,undefined,1368 x 912,1368 x 912
o5p2,null,null,4,208,right,fixed-blank,300,300,rightarrow,356,true,1300,focus,yes,895367,Chrome,89.0,Windows,10,undefined,undefined,1368 x 912,1368 x 912
o5p2,null,null,4,209,left,fixed-blank,300,300,leftarrow,384,true,1200,focus,yes,898768,Chrome,89.0,Windows,10,undefined,undefined,1368 x 912,1368 x 912
o5p2,null,null,4,210,right,fixed-blank,300,300,rightarrow,298,true,1300,focus,yes,902288,Chrome,89.0,Windows,10,undefined,undefined,1368 x 912,1368 x 912
o5p2,null,null,4,211,left,fixed-blank,300,300,leftarrow,297,true,1500,focus,yes,906198,Chrome,89.0,Windows,10,undefined,undefined,1368 x 912,1368 x 912
o5p2,null,null,4,212,right,fixed-blank,300,300,rightarrow,284,true,1300,focus,yes,909708,Chrome,89.0,Windows,10,undefined,undefined,1368 x 912,1368 x 912
o5p2,null,null,4,213,right,fixed-blank,300,300,rightarrow,389,true,1400,focus,yes,913518,Chrome,89.0,Windows,10,undefined,undefined,1368 x 912,1368 x 912
o5p2,null,null,4,214,left,fixed-blank,300,300,leftarrow,363,true,1500,focus,yes,917498,Chrome,89.0,Windows,10,undefined,undefined,1368 x 912,1368 x 912
o5p2,null,null,4,215,left,fixed-blank,300,300,leftarrow,433,true,1400,focus,yes,921348,Chrome,89.0,Windows,10,undefined,undefined,1368 x 912,1368 x 912
o5p2,null,null,4,216,right,fixed-blank,300,300,rightarrow,572,true,1000,focus,yes,924548,Chrome,89.0,Windows,10,undefined,undefined,1368 x 912,1368 x 912
o5p2,null,null,4,217,left,fixed-blank,300,300,leftarrow,386,true,1000,focus,yes,927548,Chrome,89.0,Windows,10,undefined,undefined,1368 x 912,1368 x 912
o5p2,null,null,4,218,right,fixed-blank,300,300,rightarrow,304,true,1400,focus,yes,931278,Chrome,89.0,Windows,10,undefined,undefined,1368 x 912,1368 x 912
o5p2,null,null,4,219,left,fixed-blank,300,300,leftarrow,570,true,1100,focus,yes,934668,Chrome,89.0,Windows,10,undefined,undefined,1368 x 912,1368 x 912
o5p2,null,null,4,220,right,fixed-blank,300,300,rightarrow,298,true,1400,focus,yes,938388,Chrome,89.0,Windows,10,undefined,undefined,1368 x 912,1368 x 912
o5p2,null,null,5,221,left,varied,800,0,leftarrow,348,true,1300,focus,yes,962968,Chrome,89.0,Windows,10,undefined,undefined,1368 x 912,1368 x 912
o5p2,null,null,5,222,right,varied,600,0,rightarrow,348,true,1000,focus,yes,965940,Chrome,89.0,Windows,10,undefined,undefined,1368 x 912,1368 x 912
o5p2,null,null,5,223,right,varied,600,0,rightarrow,364,true,1400,focus,yes,969718,Chrome,89.0,Windows,10,undefined,undefined,1368 x 912,1368 x 912
o5p2,null,null,5,224,left,varied,800,0,leftarrow,347,true,1000,focus,yes,972888,Chrome,89.0,Windows,10,undefined,undefined,1368 x 912,1368 x 912
o5p2,null,null,5,225,left,varied,800,0,leftarrow,372,true,1000,focus,yes,976079,Chrome,89.0,Windows,10,undefined,undefined,1368 x 912,1368 x 912
o5p2,null,null,5,226,right,varied,1000,0,rightarrow,266,true,1300,focus,yes,979969,Chrome,89.0,Windows,10,undefined,undefined,1368 x 912,1368 x 912
o5p2,null,null,5,227,left,varied,1000,0,leftarrow,334,true,1400,focus,yes,984128,Chrome,89.0,Windows,10,undefined,undefined,1368 x 912,1368 x 912
o5p2,null,null,5,228,right,varied,600,0,rightarrow,423,true,1100,focus,yes,987369,Chrome,89.0,Windows,10,undefined,undefined,1368 x 912,1368 x 912
o5p2,null,null,5,229,right,varied,400,0,rightarrow,423,true,1200,focus,yes,990618,Chrome,89.0,Windows,10,undefined,undefined,1368 x 912,1368 x 912
o5p2,null,null,5,230,left,varied,400,0,leftarrow,377,true,1100,focus,yes,993608,Chrome,89.0,Windows,10,undefined,undefined,1368 x 912,1368 x 912
o5p2,null,null,5,231,left,varied,200,0,leftarrow,430,true,1400,focus,yes,997048,Chrome,89.0,Windows,10,undefined,undefined,1368 x 912,1368 x 912
o5p2,null,null,5,232,right,varied,600,0,rightarrow,399,true,1500,focus,yes,1001078,Chrome,89.0,Windows,10,undefined,undefined,1368 x 912,1368 x 912
o5p2,null,null,5,233,left,varied,1000,0,leftarrow,398,true,1000,focus,yes,1004498,Chrome,89.0,Windows,10,undefined,undefined,1368 x 912,1368 x 912
o5p2,null,null,5,234,right,varied,600,0,rightarrow,375,true,1500,focus,yes,1008508,Chrome,89.0,Windows,10,undefined,undefined,1368 x 912,1368 x 912
o5p2,null,null,5,235,right,varied,1000,0,rightarrow,413,true,1100,focus,yes,1012139,Chrome,89.0,Windows,10,undefined,undefined,1368 x 912,1368 x 912
o5p2,null,null,5,236,left,varied,1000,0,leftarrow,489,true,1100,focus,yes,1015848,Chrome,89.0,Windows,10,undefined,undefined,1368 x 912,1368 x 912
o5p2,null,null,5,237,left,varied,400,0,leftarrow,394,true,1500,focus,yes,1019658,Chrome,89.0,Windows,10,undefined,undefined,1368 x 912,1368 x 912
o5p2,null,null,5,238,right,varied,1000,0,rightarrow,329,true,1200,focus,yes,1023409,Chrome,89.0,Windows,10,undefined,undefined,1368 x 912,1368 x 912
o5p2,null,null,5,239,right,varied,800,0,rightarrow,364,true,1200,focus,yes,1027000,Chrome,89.0,Windows,10,undefined,undefined,1368 x 912,1368 x 912
o5p2,null,null,5,240,left,varied,400,0,leftarrow,357,true,1000,focus,yes,1029789,Chrome,89.0,Windows,10,undefined,undefined,1368 x 912,1368 x 912
o5p2,null,null,5,241,right,varied,800,0,rightarrow,461,true,1500,focus,yes,1034058,Chrome,89.0,Windows,10,undefined,undefined,1368 x 912,1368 x 912
o5p2,null,null,5,242,left,varied,600,0,leftarrow,353,true,1500,focus,yes,1038028,Chrome,89.0,Windows,10,undefined,undefined,1368 x 912,1368 x 912
o5p2,null,null,5,243,left,varied,400,0,leftarrow,397,true,1400,focus,yes,1041658,Chrome,89.0,Windows,10,undefined,undefined,1368 x 912,1368 x 912
o5p2,null,null,5,244,right,varied,1000,0,rightarrow,318,true,1200,focus,yes,1045399,Chrome,89.0,Windows,10,undefined,undefined,1368 x 912,1368 x 912
o5p2,null,null,5,245,left,varied,200,0,leftarrow,317,true,1300,focus,yes,1048538,Chrome,89.0,Windows,10,undefined,undefined,1368 x 912,1368 x 912
o5p2,null,null,5,246,right,varied,800,0,rightarrow,311,true,1000,focus,yes,1051668,Chrome,89.0,Windows,10,undefined,undefined,1368 x 912,1368 x 912
o5p2,null,null,5,247,left,varied,400,0,leftarrow,329,true,1300,focus,yes,1055028,Chrome,89.0,Windows,10,undefined,undefined,1368 x 912,1368 x 912
o5p2,null,null,5,248,right,varied,1000,0,rightarrow,459,true,1300,focus,yes,1059109,Chrome,89.0,Windows,10,undefined,undefined,1368 x 912,1368 x 912
o5p2,null,null,5,249,right,varied,1000,0,rightarrow,410,true,1000,focus,yes,1062538,Chrome,89.0,Windows,10,undefined,undefined,1368 x 912,1368 x 912
o5p2,null,null,5,250,left,varied,600,0,leftarrow,358,true,1300,focus,yes,1067429,Chrome,89.0,Windows,10,undefined,undefined,1368 x 912,1368 x 912
o5p2,null,null,5,251,right,varied,200,0,rightarrow,421,true,1200,focus,yes,1070469,Chrome,89.0,Windows,10,undefined,undefined,1368 x 912,1368 x 912
o5p2,null,null,5,252,left,varied,1000,0,leftarrow,352,true,1100,focus,yes,1074048,Chrome,89.0,Windows,10,undefined,undefined,1368 x 912,1368 x 912
o5p2,null,null,5,253,left,varied,600,0,leftarrow,387,true,1300,focus,yes,1077658,Chrome,89.0,Windows,10,undefined,undefined,1368 x 912,1368 x 912
o5p2,null,null,5,254,right,varied,400,0,rightarrow,330,true,1000,focus,yes,1080409,Chrome,89.0,Windows,10,undefined,undefined,1368 x 912,1368 x 912
o5p2,null,null,5,255,right,varied,400,0,rightarrow,341,true,1200,focus,yes,1083579,Chrome,89.0,Windows,10,undefined,undefined,1368 x 912,1368 x 912
o5p2,null,null,5,256,left,varied,1000,0,leftarrow,350,true,1100,focus,yes,1087149,Chrome,89.0,Windows,10,undefined,undefined,1368 x 912,1368 x 912
o5p2,null,null,5,257,left,varied,200,0,leftarrow,456,true,1500,focus,yes,1090838,Chrome,89.0,Windows,10,undefined,undefined,1368 x 912,1368 x 912
o5p2,null,null,5,258,right,varied,400,0,rightarrow,387,true,1200,focus,yes,1094049,Chrome,89.0,Windows,10,undefined,undefined,1368 x 912,1368 x 912
o5p2,null,null,5,259,right,varied,1000,0,rightarrow,332,true,1300,focus,yes,1098009,Chrome,89.0,Windows,10,undefined,undefined,1368 x 912,1368 x 912
o5p2,null,null,5,260,left,varied,400,0,leftarrow,600,true,1300,focus,yes,1101629,Chrome,89.0,Windows,10,undefined,undefined,1368 x 912,1368 x 912
o5p2,null,null,5,261,left,varied,600,0,leftarrow,393,true,1200,focus,yes,1105040,Chrome,89.0,Windows,10,undefined,undefined,1368 x 912,1368 x 912
o5p2,null,null,5,262,right,varied,800,0,rightarrow,346,true,1200,focus,yes,1108608,Chrome,89.0,Windows,10,undefined,undefined,1368 x 912,1368 x 912
o5p2,null,null,5,263,left,varied,600,0,leftarrow,303,true,1200,focus,yes,1111929,Chrome,89.0,Windows,10,undefined,undefined,1368 x 912,1368 x 912
o5p2,null,null,5,264,right,varied,400,0,rightarrow,353,true,1500,focus,yes,1115719,Chrome,89.0,Windows,10,undefined,undefined,1368 x 912,1368 x 912
o5p2,null,null,5,265,right,varied,800,0,rightarrow,391,true,1100,focus,yes,1119129,Chrome,89.0,Windows,10,undefined,undefined,1368 x 912,1368 x 912
o5p2,null,null,5,266,left,varied,800,0,leftarrow,374,true,1100,focus,yes,1122529,Chrome,89.0,Windows,10,undefined,undefined,1368 x 912,1368 x 912
o5p2,null,null,5,267,left,varied,600,0,leftarrow,442,true,1000,focus,yes,1125600,Chrome,89.0,Windows,10,undefined,undefined,1368 x 912,1368 x 912
o5p2,null,null,5,268,right,varied,400,0,rightarrow,333,true,1300,focus,yes,1128949,Chrome,89.0,Windows,10,undefined,undefined,1368 x 912,1368 x 912
o5p2,null,null,5,269,left,varied,200,0,leftarrow,340,true,1000,focus,yes,1131529,Chrome,89.0,Windows,10,undefined,undefined,1368 x 912,1368 x 912
o5p2,null,null,5,270,right,varied,200,0,rightarrow,394,true,1500,focus,yes,1135149,Chrome,89.0,Windows,10,undefined,undefined,1368 x 912,1368 x 912
o5p2,null,null,6,271,right,fixed-blank,300,300,rightarrow,454,true,1300,focus,yes,1150486,Chrome,89.0,Windows,10,undefined,undefined,1368 x 912,1368 x 912
o5p2,null,null,6,272,left,fixed-blank,300,300,leftarrow,316,true,1500,focus,yes,1154426,Chrome,89.0,Windows,10,undefined,undefined,1368 x 912,1368 x 912
o5p2,null,null,6,273,left,fixed-blank,300,300,leftarrow,384,true,1400,focus,yes,1158236,Chrome,89.0,Windows,10,undefined,undefined,1368 x 912,1368 x 912
o5p2,null,null,6,274,right,fixed-blank,300,300,rightarrow,253,true,1300,focus,yes,1161706,Chrome,89.0,Windows,10,undefined,undefined,1368 x 912,1368 x 912
o5p2,null,null,6,275,right,fixed-blank,300,300,rightarrow,382,true,1300,focus,yes,1165316,Chrome,89.0,Windows,10,undefined,undefined,1368 x 912,1368 x 912
o5p2,null,null,6,276,left,fixed-blank,300,300,leftarrow,305,true,1100,focus,yes,1168446,Chrome,89.0,Windows,10,undefined,undefined,1368 x 912,1368 x 912
o5p2,null,null,6,277,right,fixed-blank,300,300,rightarrow,269,true,1100,focus,yes,1171536,Chrome,89.0,Windows,10,undefined,undefined,1368 x 912,1368 x 912
o5p2,null,null,6,278,left,fixed-blank,300,300,leftarrow,259,true,1200,focus,yes,1174806,Chrome,89.0,Windows,10,undefined,undefined,1368 x 912,1368 x 912
o5p2,null,null,6,279,left,fixed-blank,300,300,leftarrow,386,true,1200,focus,yes,1178216,Chrome,89.0,Windows,10,undefined,undefined,1368 x 912,1368 x 912
o5p2,null,null,6,280,right,fixed-blank,300,300,rightarrow,293,true,1400,focus,yes,1181936,Chrome,89.0,Windows,10,undefined,undefined,1368 x 912,1368 x 912
o5p2,null,null,6,281,right,fixed-blank,300,300,leftarrow,272,false,1400,focus,yes,1185626,Chrome,89.0,Windows,10,undefined,undefined,1368 x 912,1368 x 912
o5p2,null,null,6,282,left,fixed-blank,300,300,leftarrow,342,true,1500,focus,yes,1189586,Chrome,89.0,Windows,10,undefined,undefined,1368 x 912,1368 x 912
o5p2,null,null,6,283,left,fixed-blank,300,300,leftarrow,430,true,1000,focus,yes,1192646,Chrome,89.0,Windows,10,undefined,undefined,1368 x 912,1368 x 912
o5p2,null,null,6,284,right,fixed-blank,300,300,rightarrow,347,true,1500,focus,yes,1196606,Chrome,89.0,Windows,10,undefined,undefined,1368 x 912,1368 x 912
o5p2,null,null,6,285,left,fixed-blank,300,300,leftarrow,410,true,1000,focus,yes,1199626,Chrome,89.0,Windows,10,undefined,undefined,1368 x 912,1368 x 912
o5p2,null,null,6,286,right,fixed-blank,300,300,rightarrow,369,true,1000,focus,yes,1202626,Chrome,89.0,Windows,10,undefined,undefined,1368 x 912,1368 x 912
o5p2,null,null,6,287,left,fixed-blank,300,300,leftarrow,337,true,1000,focus,yes,1205586,Chrome,89.0,Windows,10,undefined,undefined,1368 x 912,1368 x 912
o5p2,null,null,6,288,right,fixed-blank,300,300,rightarrow,286,true,1300,focus,yes,1209086,Chrome,89.0,Windows,10,undefined,undefined,1368 x 912,1368 x 912
o5p2,null,null,6,289,left,fixed-blank,300,300,leftarrow,326,true,1200,focus,yes,1212441,Chrome,89.0,Windows,10,undefined,undefined,1368 x 912,1368 x 912
o5p2,null,null,6,290,right,fixed-blank,300,300,rightarrow,399,true,1500,focus,yes,1216460,Chrome,89.0,Windows,10,undefined,undefined,1368 x 912,1368 x 912
o5p2,null,null,6,291,left,fixed-blank,300,300,leftarrow,303,true,1400,focus,yes,1220191,Chrome,89.0,Windows,10,undefined,undefined,1368 x 912,1368 x 912
o5p2,null,null,6,292,right,fixed-blank,300,300,rightarrow,335,true,1100,focus,yes,1223351,Chrome,89.0,Windows,10,undefined,undefined,1368 x 912,1368 x 912
o5p2,null,null,6,293,left,fixed-blank,300,300,leftarrow,353,true,1300,focus,yes,1226920,Chrome,89.0,Windows,10,undefined,undefined,1368 x 912,1368 x 912
o5p2,null,null,6,294,right,fixed-blank,300,300,rightarrow,161,true,1200,focus,yes,1230100,Chrome,89.0,Windows,10,undefined,undefined,1368 x 912,1368 x 912
o5p2,null,null,6,295,right,fixed-blank,300,300,rightarrow,453,true,1200,focus,yes,1233581,Chrome,89.0,Windows,10,undefined,undefined,1368 x 912,1368 x 912
o5p2,null,null,6,296,left,fixed-blank,300,300,leftarrow,367,true,1500,focus,yes,1237571,Chrome,89.0,Windows,10,undefined,undefined,1368 x 912,1368 x 912
o5p2,null,null,6,297,left,fixed-blank,300,300,rightarrow,326,false,1200,focus,yes,1240920,Chrome,89.0,Windows,10,undefined,undefined,1368 x 912,1368 x 912
o5p2,null,null,6,298,right,fixed-blank,300,300,rightarrow,335,true,1300,focus,yes,1245771,Chrome,89.0,Windows,10,undefined,undefined,1368 x 912,1368 x 912
o5p2,null,null,6,299,right,fixed-blank,300,300,rightarrow,383,true,1200,focus,yes,1249181,Chrome,89.0,Windows,10,undefined,undefined,1368 x 912,1368 x 912
o5p2,null,null,6,300,left,fixed-blank,300,300,leftarrow,429,true,1100,focus,yes,1252440,Chrome,89.0,Windows,10,undefined,undefined,1368 x 912,1368 x 912
o5p2,null,null,6,301,right,fixed-blank,300,300,rightarrow,321,true,1100,focus,yes,1255581,Chrome,89.0,Windows,10,undefined,undefined,1368 x 912,1368 x 912
o5p2,null,null,6,302,left,fixed-blank,300,300,leftarrow,294,true,1000,focus,yes,1258501,Chrome,89.0,Windows,10,undefined,undefined,1368 x 912,1368 x 912
o5p2,null,null,6,303,left,fixed-blank,300,300,leftarrow,369,true,1100,focus,yes,1261700,Chrome,89.0,Windows,10,undefined,undefined,1368 x 912,1368 x 912
o5p2,null,null,6,304,right,fixed-blank,300,300,rightarrow,322,true,1500,focus,yes,1265641,Chrome,89.0,Windows,10,undefined,undefined,1368 x 912,1368 x 912
o5p2,null,null,6,305,right,fixed-blank,300,300,rightarrow,337,true,1400,focus,yes,1269401,Chrome,89.0,Windows,10,undefined,undefined,1368 x 912,1368 x 912
o5p2,null,null,6,306,left,fixed-blank,300,300,leftarrow,418,true,1100,focus,yes,1272651,Chrome,89.0,Windows,10,undefined,undefined,1368 x 912,1368 x 912
o5p2,null,null,6,307,right,fixed-blank,300,300,rightarrow,396,true,1400,focus,yes,1276460,Chrome,89.0,Windows,10,undefined,undefined,1368 x 912,1368 x 912
o5p2,null,null,6,308,left,fixed-blank,300,300,leftarrow,279,true,1400,focus,yes,1280171,Chrome,89.0,Windows,10,undefined,undefined,1368 x 912,1368 x 912
o5p2,null,null,6,309,right,fixed-blank,300,300,rightarrow,346,true,1200,focus,yes,1283542,Chrome,89.0,Windows,10,undefined,undefined,1368 x 912,1368 x 912
o5p2,null,null,6,310,left,fixed-blank,300,300,leftarrow,344,true,1500,focus,yes,1287501,Chrome,89.0,Windows,10,undefined,undefined,1368 x 912,1368 x 912
o5p2,null,null,6,311,left,fixed-blank,300,300,leftarrow,548,true,1400,focus,yes,1291471,Chrome,89.0,Windows,10,undefined,undefined,1368 x 912,1368 x 912
o5p2,null,null,6,312,right,fixed-blank,300,300,rightarrow,403,true,1400,focus,yes,1295291,Chrome,89.0,Windows,10,undefined,undefined,1368 x 912,1368 x 912
o5p2,null,null,6,313,left,fixed-blank,300,300,leftarrow,347,true,1000,focus,yes,1298251,Chrome,89.0,Windows,10,undefined,undefined,1368 x 912,1368 x 912
o5p2,null,null,6,314,right,fixed-blank,300,300,rightarrow,488,true,1000,focus,yes,1301361,Chrome,89.0,Windows,10,undefined,undefined,1368 x 912,1368 x 912
o5p2,null,null,6,315,right,fixed-blank,300,300,rightarrow,440,true,1000,focus,yes,1304421,Chrome,89.0,Windows,10,undefined,undefined,1368 x 912,1368 x 912
o5p2,null,null,6,316,left,fixed-blank,300,300,leftarrow,498,true,1200,focus,yes,1307931,Chrome,89.0,Windows,10,undefined,undefined,1368 x 912,1368 x 912
o5p2,null,null,6,317,right,fixed-blank,300,300,rightarrow,301,true,1100,focus,yes,1311051,Chrome,89.0,Windows,10,undefined,undefined,1368 x 912,1368 x 912
o5p2,null,null,6,318,left,fixed-blank,300,300,leftarrow,343,true,1000,focus,yes,1314031,Chrome,89.0,Windows,10,undefined,undefined,1368 x 912,1368 x 912
o5p2,null,null,6,319,right,fixed-blank,300,300,rightarrow,303,true,1500,focus,yes,1317961,Chrome,89.0,Windows,10,undefined,undefined,1368 x 912,1368 x 912
o5p2,null,null,6,320,left,fixed-blank,300,300,leftarrow,339,true,1400,focus,yes,1321721,Chrome,89.0,Windows,10,undefined,undefined,1368 x 912,1368 x 912
