subjectID,age,gender,block_i,trial_i,go_cue,block,fixation_duration,blank_interval,response,rt,correct,inter_trial_interval,focus,Fullscreen,time_elapsed,browser_name,browser_version,os_name,os_version,tablet,mobile,screen_resolution,window_resolution
fr0h,null,null,0,1,right,practice,600,0,undefined,-600,false,1400,focus,yes,37247,Chrome,88.0,macOS,11.1.0,undefined,undefined,1440 x 900,1440 x 900
fr0h,null,null,0,2,left,practice,600,0,undefined,-600,false,1100,focus,yes,41814,Chrome,88.0,macOS,11.1.0,undefined,undefined,1440 x 900,1440 x 900
fr0h,null,null,0,3,right,practice,600,0,rightarrow,279,true,1400,focus,yes,46259,Chrome,88.0,macOS,11.1.0,undefined,undefined,1440 x 900,1440 x 900
fr0h,null,null,0,4,left,practice,600,0,leftarrow,-481,true,1100,focus,yes,49343,Chrome,88.0,macOS,11.1.0,undefined,undefined,1440 x 900,1440 x 900
fr0h,null,null,0,5,left,practice,600,0,leftarrow,389,true,1100,focus,yes,53297,Chrome,88.0,macOS,11.1.0,undefined,undefined,1440 x 900,1440 x 900
fr0h,null,null,0,6,right,practice,600,0,rightarrow,322,true,1200,focus,yes,57386,Chrome,88.0,macOS,11.1.0,undefined,undefined,1440 x 900,1440 x 900
fr0h,null,null,0,7,right,practice,600,0,rightarrow,402,true,1100,focus,yes,61347,Chrome,88.0,macOS,11.1.0,undefined,undefined,1440 x 900,1440 x 900
fr0h,null,null,0,8,left,practice,600,0,leftarrow,387,true,1000,focus,yes,65100,Chrome,88.0,macOS,11.1.0,undefined,undefined,1440 x 900,1440 x 900
fr0h,null,null,0,9,right,practice,600,0,rightarrow,385,true,1400,focus,yes,69651,Chrome,88.0,macOS,11.1.0,undefined,undefined,1440 x 900,1440 x 900
fr0h,null,null,0,10,left,practice,600,0,leftarrow,360,true,1100,focus,yes,73575,Chrome,88.0,macOS,11.1.0,undefined,undefined,1440 x 900,1440 x 900
fr0h,null,null,0,11,right,practice,600,0,rightarrow,415,true,1400,focus,yes,78156,Chrome,88.0,macOS,11.1.0,undefined,undefined,1440 x 900,1440 x 900
fr0h,null,null,0,12,left,practice,600,0,leftarrow,400,true,1400,focus,yes,82724,Chrome,88.0,macOS,11.1.0,undefined,undefined,1440 x 900,1440 x 900
fr0h,null,null,0,13,left,practice,600,0,leftarrow,433,true,1300,focus,yes,87119,Chrome,88.0,macOS,11.1.0,undefined,undefined,1440 x 900,1440 x 900
fr0h,null,null,0,14,right,practice,600,0,rightarrow,354,true,1500,focus,yes,91835,Chrome,88.0,macOS,11.1.0,undefined,undefined,1440 x 900,1440 x 900
fr0h,null,null,0,15,left,practice,600,0,leftarrow,388,true,1400,focus,yes,96386,Chrome,88.0,macOS,11.1.0,undefined,undefined,1440 x 900,1440 x 900
fr0h,null,null,0,16,right,practice,600,0,rightarrow,353,true,1400,focus,yes,100907,Chrome,88.0,macOS,11.1.0,undefined,undefined,1440 x 900,1440 x 900
fr0h,null,null,0,17,right,practice,600,0,rightarrow,364,true,1400,focus,yes,105437,Chrome,88.0,macOS,11.1.0,undefined,undefined,1440 x 900,1440 x 900
fr0h,null,null,0,18,left,practice,600,0,leftarrow,395,true,1300,focus,yes,109800,Chrome,88.0,macOS,11.1.0,undefined,undefined,1440 x 900,1440 x 900
fr0h,null,null,0,19,left,practice,600,0,leftarrow,438,true,1500,focus,yes,114598,Chrome,88.0,macOS,11.1.0,undefined,undefined,1440 x 900,1440 x 900
fr0h,null,null,0,20,right,practice,600,0,rightarrow,468,true,1400,focus,yes,119237,Chrome,88.0,macOS,11.1.0,undefined,undefined,1440 x 900,1440 x 900
fr0h,null,null,1,21,right,varied,200,0,rightarrow,379,true,1500,focus,yes,139474,Chrome,88.0,macOS,11.1.0,undefined,undefined,1440 x 900,1440 x 900
fr0h,null,null,1,22,left,varied,400,0,leftarrow,249,true,1300,focus,yes,142731,Chrome,88.0,macOS,11.1.0,undefined,undefined,1440 x 900,1440 x 900
fr0h,null,null,1,23,left,varied,600,0,leftarrow,463,true,1100,focus,yes,146007,Chrome,88.0,macOS,11.1.0,undefined,undefined,1440 x 900,1440 x 900
fr0h,null,null,1,24,right,varied,200,0,rightarrow,343,true,1100,focus,yes,148764,Chrome,88.0,macOS,11.1.0,undefined,undefined,1440 x 900,1440 x 900
fr0h,null,null,1,25,right,varied,200,0,leftarrow,271,false,1300,focus,yes,151845,Chrome,88.0,macOS,11.1.0,undefined,undefined,1440 x 900,1440 x 900
fr0h,null,null,1,26,left,varied,400,0,leftarrow,334,true,1000,focus,yes,154589,Chrome,88.0,macOS,11.1.0,undefined,undefined,1440 x 900,1440 x 900
fr0h,null,null,1,27,left,varied,800,0,leftarrow,479,true,1300,focus,yes,158477,Chrome,88.0,macOS,11.1.0,undefined,undefined,1440 x 900,1440 x 900
fr0h,null,null,1,28,right,varied,400,0,rightarrow,367,true,1200,focus,yes,161655,Chrome,88.0,macOS,11.1.0,undefined,undefined,1440 x 900,1440 x 900
fr0h,null,null,1,29,left,varied,600,0,leftarrow,330,true,1200,focus,yes,164997,Chrome,88.0,macOS,11.1.0,undefined,undefined,1440 x 900,1440 x 900
fr0h,null,null,1,30,right,varied,400,0,rightarrow,409,true,1000,focus,yes,167818,Chrome,88.0,macOS,11.1.0,undefined,undefined,1440 x 900,1440 x 900
fr0h,null,null,1,31,left,varied,1000,0,leftarrow,379,true,1000,focus,yes,171207,Chrome,88.0,macOS,11.1.0,undefined,undefined,1440 x 900,1440 x 900
fr0h,null,null,1,32,right,varied,200,0,rightarrow,456,true,1300,focus,yes,174477,Chrome,88.0,macOS,11.1.0,undefined,undefined,1440 x 900,1440 x 900
fr0h,null,null,1,33,right,varied,1000,0,rightarrow,535,true,1300,focus,yes,178629,Chrome,88.0,macOS,11.1.0,undefined,undefined,1440 x 900,1440 x 900
fr0h,null,null,1,34,left,varied,600,0,leftarrow,345,true,1100,focus,yes,181789,Chrome,88.0,macOS,11.1.0,undefined,undefined,1440 x 900,1440 x 900
fr0h,null,null,1,35,right,varied,400,0,rightarrow,346,true,1200,focus,yes,184941,Chrome,88.0,macOS,11.1.0,undefined,undefined,1440 x 900,1440 x 900
fr0h,null,null,1,36,left,varied,1000,0,leftarrow,350,true,1200,focus,yes,188701,Chrome,88.0,macOS,11.1.0,undefined,undefined,1440 x 900,1440 x 900
fr0h,null,null,1,37,right,varied,200,0,rightarrow,420,true,1300,focus,yes,191934,Chrome,88.0,macOS,11.1.0,undefined,undefined,1440 x 900,1440 x 900
fr0h,null,null,1,38,left,varied,400,0,leftarrow,346,true,1200,focus,yes,195089,Chrome,88.0,macOS,11.1.0,undefined,undefined,1440 x 900,1440 x 900
fr0h,null,null,1,39,right,varied,200,0,rightarrow,349,true,1200,focus,yes,198053,Chrome,88.0,macOS,11.1.0,undefined,undefined,1440 x 900,1440 x 900
fr0h,null,null,1,40,left,varied,200,0,leftarrow,447,true,1300,focus,yes,201311,Chrome,88.0,macOS,11.1.0,undefined,undefined,1440 x 900,1440 x 900
fr0h,null,null,1,41,left,varied,800,0,leftarrow,595,true,1100,focus,yes,204921,Chrome,88.0,macOS,11.1.0,undefined,undefined,1440 x 900,1440 x 900
fr0h,null,null,1,42,right,varied,800,0,rightarrow,362,true,1200,focus,yes,208497,Chrome,88.0,macOS,11.1.0,undefined,undefined,1440 x 900,1440 x 900
fr0h,null,null,1,43,left,varied,600,0,leftarrow,301,true,1300,focus,yes,212013,Chrome,88.0,macOS,11.1.0,undefined,undefined,1440 x 900,1440 x 900
fr0h,null,null,1,44,right,varied,800,0,rightarrow,332,true,1500,focus,yes,216156,Chrome,88.0,macOS,11.1.0,undefined,undefined,1440 x 900,1440 x 900
fr0h,null,null,1,45,left,varied,200,0,leftarrow,514,true,1400,focus,yes,219678,Chrome,88.0,macOS,11.1.0,undefined,undefined,1440 x 900,1440 x 900
fr0h,null,null,1,46,right,varied,400,0,rightarrow,-52,true,1400,focus,yes,222839,Chrome,88.0,macOS,11.1.0,undefined,undefined,1440 x 900,1440 x 900
fr0h,null,null,1,47,right,varied,600,0,rightarrow,404,true,1100,focus,yes,226057,Chrome,88.0,macOS,11.1.0,undefined,undefined,1440 x 900,1440 x 900
fr0h,null,null,1,48,left,varied,200,0,leftarrow,351,true,1400,focus,yes,229420,Chrome,88.0,macOS,11.1.0,undefined,undefined,1440 x 900,1440 x 900
fr0h,null,null,1,49,right,varied,800,0,rightarrow,474,true,1300,focus,yes,233309,Chrome,88.0,macOS,11.1.0,undefined,undefined,1440 x 900,1440 x 900
fr0h,null,null,1,50,left,varied,600,0,leftarrow,367,true,1200,focus,yes,236685,Chrome,88.0,macOS,11.1.0,undefined,undefined,1440 x 900,1440 x 900
fr0h,null,null,1,51,right,varied,1000,0,rightarrow,285,true,1200,focus,yes,240382,Chrome,88.0,macOS,11.1.0,undefined,undefined,1440 x 900,1440 x 900
fr0h,null,null,1,52,left,varied,200,0,undefined,-200,false,1500,focus,yes,244600,Chrome,88.0,macOS,11.1.0,undefined,undefined,1440 x 900,1440 x 900
fr0h,null,null,1,53,right,varied,400,0,rightarrow,330,true,1100,focus,yes,248648,Chrome,88.0,macOS,11.1.0,undefined,undefined,1440 x 900,1440 x 900
fr0h,null,null,1,54,left,varied,600,0,leftarrow,330,true,1000,focus,yes,251589,Chrome,88.0,macOS,11.1.0,undefined,undefined,1440 x 900,1440 x 900
fr0h,null,null,1,55,right,varied,200,0,rightarrow,317,true,1100,focus,yes,254319,Chrome,88.0,macOS,11.1.0,undefined,undefined,1440 x 900,1440 x 900
fr0h,null,null,1,56,left,varied,1000,0,leftarrow,290,true,1400,focus,yes,258418,Chrome,88.0,macOS,11.1.0,undefined,undefined,1440 x 900,1440 x 900
fr0h,null,null,1,57,left,varied,400,0,rightarrow,285,false,1300,focus,yes,261713,Chrome,88.0,macOS,11.1.0,undefined,undefined,1440 x 900,1440 x 900
fr0h,null,null,1,58,right,varied,800,0,rightarrow,491,true,1200,focus,yes,265413,Chrome,88.0,macOS,11.1.0,undefined,undefined,1440 x 900,1440 x 900
fr0h,null,null,1,59,left,varied,400,0,leftarrow,525,true,1000,focus,yes,268348,Chrome,88.0,macOS,11.1.0,undefined,undefined,1440 x 900,1440 x 900
fr0h,null,null,1,60,right,varied,600,0,rightarrow,311,true,1100,focus,yes,271468,Chrome,88.0,macOS,11.1.0,undefined,undefined,1440 x 900,1440 x 900
fr0h,null,null,1,61,right,varied,200,0,rightarrow,439,true,1300,focus,yes,274719,Chrome,88.0,macOS,11.1.0,undefined,undefined,1440 x 900,1440 x 900
fr0h,null,null,1,62,left,varied,400,0,leftarrow,359,true,1000,focus,yes,277489,Chrome,88.0,macOS,11.1.0,undefined,undefined,1440 x 900,1440 x 900
fr0h,null,null,1,63,left,varied,600,0,leftarrow,409,true,1300,focus,yes,281109,Chrome,88.0,macOS,11.1.0,undefined,undefined,1440 x 900,1440 x 900
fr0h,null,null,1,64,right,varied,800,0,rightarrow,293,true,1500,focus,yes,285211,Chrome,88.0,macOS,11.1.0,undefined,undefined,1440 x 900,1440 x 900
fr0h,null,null,1,65,right,varied,400,0,rightarrow,507,true,1200,focus,yes,288531,Chrome,88.0,macOS,11.1.0,undefined,undefined,1440 x 900,1440 x 900
fr0h,null,null,1,66,left,varied,400,0,leftarrow,389,true,1400,focus,yes,292133,Chrome,88.0,macOS,11.1.0,undefined,undefined,1440 x 900,1440 x 900
fr0h,null,null,1,67,right,varied,1000,0,rightarrow,386,true,1500,focus,yes,296533,Chrome,88.0,macOS,11.1.0,undefined,undefined,1440 x 900,1440 x 900
fr0h,null,null,1,68,left,varied,600,0,leftarrow,344,true,1100,focus,yes,299690,Chrome,88.0,macOS,11.1.0,undefined,undefined,1440 x 900,1440 x 900
fr0h,null,null,1,69,left,varied,200,0,leftarrow,366,true,1300,focus,yes,302871,Chrome,88.0,macOS,11.1.0,undefined,undefined,1440 x 900,1440 x 900
fr0h,null,null,1,70,right,varied,800,0,rightarrow,356,true,1100,focus,yes,306241,Chrome,88.0,macOS,11.1.0,undefined,undefined,1440 x 900,1440 x 900
fr0h,null,null,2,71,right,fixed-filled,600,0,rightarrow,415,true,1000,focus,yes,315157,Chrome,88.0,macOS,11.1.0,undefined,undefined,1440 x 900,1440 x 900
fr0h,null,null,2,72,left,fixed-filled,600,0,leftarrow,378,true,1200,focus,yes,318545,Chrome,88.0,macOS,11.1.0,undefined,undefined,1440 x 900,1440 x 900
fr0h,null,null,2,73,left,fixed-filled,600,0,rightarrow,315,false,1200,focus,yes,321869,Chrome,88.0,macOS,11.1.0,undefined,undefined,1440 x 900,1440 x 900
fr0h,null,null,2,74,right,fixed-filled,600,0,rightarrow,371,true,1000,focus,yes,324847,Chrome,88.0,macOS,11.1.0,undefined,undefined,1440 x 900,1440 x 900
fr0h,null,null,2,75,left,fixed-filled,600,0,leftarrow,373,true,1200,focus,yes,328230,Chrome,88.0,macOS,11.1.0,undefined,undefined,1440 x 900,1440 x 900
fr0h,null,null,2,76,right,fixed-filled,600,0,rightarrow,393,true,1300,focus,yes,331835,Chrome,88.0,macOS,11.1.0,undefined,undefined,1440 x 900,1440 x 900
fr0h,null,null,2,77,left,fixed-filled,600,0,leftarrow,340,true,1200,focus,yes,335188,Chrome,88.0,macOS,11.1.0,undefined,undefined,1440 x 900,1440 x 900
fr0h,null,null,2,78,right,fixed-filled,600,0,rightarrow,416,true,1000,focus,yes,338215,Chrome,88.0,macOS,11.1.0,undefined,undefined,1440 x 900,1440 x 900
fr0h,null,null,2,79,left,fixed-filled,600,0,leftarrow,431,true,1200,focus,yes,341654,Chrome,88.0,macOS,11.1.0,undefined,undefined,1440 x 900,1440 x 900
fr0h,null,null,2,80,right,fixed-filled,600,0,rightarrow,354,true,1500,focus,yes,345621,Chrome,88.0,macOS,11.1.0,undefined,undefined,1440 x 900,1440 x 900
fr0h,null,null,2,81,right,fixed-filled,600,0,rightarrow,425,true,1200,focus,yes,349056,Chrome,88.0,macOS,11.1.0,undefined,undefined,1440 x 900,1440 x 900
fr0h,null,null,2,82,left,fixed-filled,600,0,leftarrow,330,true,1000,focus,yes,351997,Chrome,88.0,macOS,11.1.0,undefined,undefined,1440 x 900,1440 x 900
fr0h,null,null,2,83,right,fixed-filled,600,0,rightarrow,350,true,1400,focus,yes,355758,Chrome,88.0,macOS,11.1.0,undefined,undefined,1440 x 900,1440 x 900
fr0h,null,null,2,84,left,fixed-filled,600,0,leftarrow,420,true,1000,focus,yes,358793,Chrome,88.0,macOS,11.1.0,undefined,undefined,1440 x 900,1440 x 900
fr0h,null,null,2,85,right,fixed-filled,600,0,rightarrow,300,true,1100,focus,yes,361903,Chrome,88.0,macOS,11.1.0,undefined,undefined,1440 x 900,1440 x 900
fr0h,null,null,2,86,left,fixed-filled,600,0,leftarrow,369,true,1400,focus,yes,365682,Chrome,88.0,macOS,11.1.0,undefined,undefined,1440 x 900,1440 x 900
fr0h,null,null,2,87,left,fixed-filled,600,0,rightarrow,-284,false,1200,focus,yes,368413,Chrome,88.0,macOS,11.1.0,undefined,undefined,1440 x 900,1440 x 900
fr0h,null,null,2,88,right,fixed-filled,600,0,rightarrow,404,true,1000,focus,yes,371428,Chrome,88.0,macOS,11.1.0,undefined,undefined,1440 x 900,1440 x 900
fr0h,null,null,2,89,right,fixed-filled,600,0,rightarrow,452,true,1500,focus,yes,375495,Chrome,88.0,macOS,11.1.0,undefined,undefined,1440 x 900,1440 x 900
fr0h,null,null,2,90,left,fixed-filled,600,0,leftarrow,417,true,1400,focus,yes,379323,Chrome,88.0,macOS,11.1.0,undefined,undefined,1440 x 900,1440 x 900
fr0h,null,null,2,91,left,fixed-filled,600,0,leftarrow,492,true,1000,focus,yes,382422,Chrome,88.0,macOS,11.1.0,undefined,undefined,1440 x 900,1440 x 900
fr0h,null,null,2,92,right,fixed-filled,600,0,rightarrow,337,true,1000,focus,yes,385366,Chrome,88.0,macOS,11.1.0,undefined,undefined,1440 x 900,1440 x 900
fr0h,null,null,2,93,right,fixed-filled,600,0,rightarrow,400,true,1400,focus,yes,389173,Chrome,88.0,macOS,11.1.0,undefined,undefined,1440 x 900,1440 x 900
fr0h,null,null,2,94,left,fixed-filled,600,0,leftarrow,492,true,1300,focus,yes,392877,Chrome,88.0,macOS,11.1.0,undefined,undefined,1440 x 900,1440 x 900
fr0h,null,null,2,95,left,fixed-filled,600,0,leftarrow,392,true,1200,focus,yes,396278,Chrome,88.0,macOS,11.1.0,undefined,undefined,1440 x 900,1440 x 900
fr0h,null,null,2,96,right,fixed-filled,600,0,rightarrow,384,true,1500,focus,yes,400347,Chrome,88.0,macOS,11.1.0,undefined,undefined,1440 x 900,1440 x 900
fr0h,null,null,2,97,left,fixed-filled,600,0,leftarrow,367,true,1200,focus,yes,403725,Chrome,88.0,macOS,11.1.0,undefined,undefined,1440 x 900,1440 x 900
fr0h,null,null,2,98,right,fixed-filled,600,0,rightarrow,306,true,1200,focus,yes,407045,Chrome,88.0,macOS,11.1.0,undefined,undefined,1440 x 900,1440 x 900
fr0h,null,null,2,99,left,fixed-filled,600,0,leftarrow,345,true,1000,focus,yes,410002,Chrome,88.0,macOS,11.1.0,undefined,undefined,1440 x 900,1440 x 900
fr0h,null,null,2,100,right,fixed-filled,600,0,rightarrow,295,true,1200,focus,yes,413309,Chrome,88.0,macOS,11.1.0,undefined,undefined,1440 x 900,1440 x 900
fr0h,null,null,2,101,right,fixed-filled,600,0,rightarrow,359,true,1500,focus,yes,417280,Chrome,88.0,macOS,11.1.0,undefined,undefined,1440 x 900,1440 x 900
fr0h,null,null,2,102,left,fixed-filled,600,0,leftarrow,324,true,1200,focus,yes,420616,Chrome,88.0,macOS,11.1.0,undefined,undefined,1440 x 900,1440 x 900
fr0h,null,null,2,103,right,fixed-filled,600,0,rightarrow,-225,true,1400,focus,yes,423803,Chrome,88.0,macOS,11.1.0,undefined,undefined,1440 x 900,1440 x 900
fr0h,null,null,2,104,left,fixed-filled,600,0,leftarrow,457,true,1200,focus,yes,427275,Chrome,88.0,macOS,11.1.0,undefined,undefined,1440 x 900,1440 x 900
fr0h,null,null,2,105,right,fixed-filled,600,0,rightarrow,634,true,1000,focus,yes,430518,Chrome,88.0,macOS,11.1.0,undefined,undefined,1440 x 900,1440 x 900
fr0h,null,null,2,106,left,fixed-filled,600,0,leftarrow,337,true,1200,focus,yes,433870,Chrome,88.0,macOS,11.1.0,undefined,undefined,1440 x 900,1440 x 900
fr0h,null,null,2,107,left,fixed-filled,600,0,leftarrow,411,true,1000,focus,yes,436891,Chrome,88.0,macOS,11.1.0,undefined,undefined,1440 x 900,1440 x 900
fr0h,null,null,2,108,right,fixed-filled,600,0,rightarrow,454,true,1500,focus,yes,440958,Chrome,88.0,macOS,11.1.0,undefined,undefined,1440 x 900,1440 x 900
fr0h,null,null,2,109,left,fixed-filled,600,0,leftarrow,341,true,1000,focus,yes,443908,Chrome,88.0,macOS,11.1.0,undefined,undefined,1440 x 900,1440 x 900
fr0h,null,null,2,110,right,fixed-filled,600,0,leftarrow,370,false,1000,focus,yes,446890,Chrome,88.0,macOS,11.1.0,undefined,undefined,1440 x 900,1440 x 900
fr0h,null,null,2,111,right,fixed-filled,600,0,rightarrow,449,true,1100,focus,yes,451254,Chrome,88.0,macOS,11.1.0,undefined,undefined,1440 x 900,1440 x 900
fr0h,null,null,2,112,left,fixed-filled,600,0,leftarrow,428,true,1500,focus,yes,455292,Chrome,88.0,macOS,11.1.0,undefined,undefined,1440 x 900,1440 x 900
fr0h,null,null,2,113,right,fixed-filled,600,0,rightarrow,374,true,1300,focus,yes,458878,Chrome,88.0,macOS,11.1.0,undefined,undefined,1440 x 900,1440 x 900
fr0h,null,null,2,114,left,fixed-filled,600,0,leftarrow,552,true,1500,focus,yes,463042,Chrome,88.0,macOS,11.1.0,undefined,undefined,1440 x 900,1440 x 900
fr0h,null,null,2,115,right,fixed-filled,600,0,rightarrow,341,true,1400,focus,yes,466794,Chrome,88.0,macOS,11.1.0,undefined,undefined,1440 x 900,1440 x 900
fr0h,null,null,2,116,left,fixed-filled,600,0,leftarrow,356,true,1300,focus,yes,470359,Chrome,88.0,macOS,11.1.0,undefined,undefined,1440 x 900,1440 x 900
fr0h,null,null,2,117,right,fixed-filled,600,0,rightarrow,518,true,1300,focus,yes,474087,Chrome,88.0,macOS,11.1.0,undefined,undefined,1440 x 900,1440 x 900
fr0h,null,null,2,118,left,fixed-filled,600,0,leftarrow,376,true,1100,focus,yes,477278,Chrome,88.0,macOS,11.1.0,undefined,undefined,1440 x 900,1440 x 900
fr0h,null,null,2,119,left,fixed-filled,600,0,leftarrow,503,true,1300,focus,yes,480994,Chrome,88.0,macOS,11.1.0,undefined,undefined,1440 x 900,1440 x 900
fr0h,null,null,2,120,right,fixed-filled,600,0,rightarrow,325,true,1100,focus,yes,484133,Chrome,88.0,macOS,11.1.0,undefined,undefined,1440 x 900,1440 x 900
fr0h,null,null,3,121,right,fixed-blank,300,300,rightarrow,361,true,1100,focus,yes,498059,Chrome,88.0,macOS,11.1.0,undefined,undefined,1440 x 900,1440 x 900
fr0h,null,null,3,122,left,fixed-blank,300,300,leftarrow,394,true,1100,focus,yes,501263,Chrome,88.0,macOS,11.1.0,undefined,undefined,1440 x 900,1440 x 900
fr0h,null,null,3,123,right,fixed-blank,300,300,rightarrow,328,true,1300,focus,yes,504802,Chrome,88.0,macOS,11.1.0,undefined,undefined,1440 x 900,1440 x 900
fr0h,null,null,3,124,left,fixed-blank,300,300,leftarrow,347,true,1500,focus,yes,508762,Chrome,88.0,macOS,11.1.0,undefined,undefined,1440 x 900,1440 x 900
fr0h,null,null,3,125,right,fixed-blank,300,300,rightarrow,453,true,1100,focus,yes,512028,Chrome,88.0,macOS,11.1.0,undefined,undefined,1440 x 900,1440 x 900
fr0h,null,null,3,126,left,fixed-blank,300,300,leftarrow,339,true,1400,focus,yes,515778,Chrome,88.0,macOS,11.1.0,undefined,undefined,1440 x 900,1440 x 900
fr0h,null,null,3,127,right,fixed-blank,300,300,rightarrow,528,true,1200,focus,yes,519318,Chrome,88.0,macOS,11.1.0,undefined,undefined,1440 x 900,1440 x 900
fr0h,null,null,3,128,left,fixed-blank,300,300,leftarrow,342,true,1400,focus,yes,523075,Chrome,88.0,macOS,11.1.0,undefined,undefined,1440 x 900,1440 x 900
fr0h,null,null,3,129,right,fixed-blank,300,300,rightarrow,413,true,1300,focus,yes,526698,Chrome,88.0,macOS,11.1.0,undefined,undefined,1440 x 900,1440 x 900
fr0h,null,null,3,130,left,fixed-blank,300,300,leftarrow,437,true,1000,focus,yes,529740,Chrome,88.0,macOS,11.1.0,undefined,undefined,1440 x 900,1440 x 900
fr0h,null,null,3,131,right,fixed-blank,300,300,rightarrow,370,true,1100,focus,yes,532919,Chrome,88.0,macOS,11.1.0,undefined,undefined,1440 x 900,1440 x 900
fr0h,null,null,3,132,left,fixed-blank,300,300,leftarrow,412,true,1200,focus,yes,536340,Chrome,88.0,macOS,11.1.0,undefined,undefined,1440 x 900,1440 x 900
fr0h,null,null,3,133,left,fixed-blank,300,300,leftarrow,404,true,1100,focus,yes,539554,Chrome,88.0,macOS,11.1.0,undefined,undefined,1440 x 900,1440 x 900
fr0h,null,null,3,134,right,fixed-blank,300,300,rightarrow,284,true,1400,focus,yes,543250,Chrome,88.0,macOS,11.1.0,undefined,undefined,1440 x 900,1440 x 900
fr0h,null,null,3,135,right,fixed-blank,300,300,rightarrow,425,true,1300,focus,yes,546890,Chrome,88.0,macOS,11.1.0,undefined,undefined,1440 x 900,1440 x 900
fr0h,null,null,3,136,left,fixed-blank,300,300,leftarrow,384,true,1100,focus,yes,550085,Chrome,88.0,macOS,11.1.0,undefined,undefined,1440 x 900,1440 x 900
fr0h,null,null,3,137,right,fixed-blank,300,300,rightarrow,388,true,1400,focus,yes,553884,Chrome,88.0,macOS,11.1.0,undefined,undefined,1440 x 900,1440 x 900
fr0h,null,null,3,138,left,fixed-blank,300,300,leftarrow,359,true,1100,focus,yes,557054,Chrome,88.0,macOS,11.1.0,undefined,undefined,1440 x 900,1440 x 900
fr0h,null,null,3,139,right,fixed-blank,300,300,rightarrow,520,true,1000,focus,yes,560180,Chrome,88.0,macOS,11.1.0,undefined,undefined,1440 x 900,1440 x 900
fr0h,null,null,3,140,left,fixed-blank,300,300,leftarrow,391,true,1200,focus,yes,563585,Chrome,88.0,macOS,11.1.0,undefined,undefined,1440 x 900,1440 x 900
fr0h,null,null,3,141,left,fixed-blank,300,300,leftarrow,405,true,1100,focus,yes,566800,Chrome,88.0,macOS,11.1.0,undefined,undefined,1440 x 900,1440 x 900
fr0h,null,null,3,142,right,fixed-blank,300,300,rightarrow,318,true,1500,focus,yes,570726,Chrome,88.0,macOS,11.1.0,undefined,undefined,1440 x 900,1440 x 900
fr0h,null,null,3,143,right,fixed-blank,300,300,rightarrow,493,true,1200,focus,yes,574232,Chrome,88.0,macOS,11.1.0,undefined,undefined,1440 x 900,1440 x 900
fr0h,null,null,3,144,left,fixed-blank,300,300,leftarrow,478,true,1000,focus,yes,577317,Chrome,88.0,macOS,11.1.0,undefined,undefined,1440 x 900,1440 x 900
fr0h,null,null,3,145,right,fixed-blank,300,300,rightarrow,370,true,1300,focus,yes,580896,Chrome,88.0,macOS,11.1.0,undefined,undefined,1440 x 900,1440 x 900
fr0h,null,null,3,146,left,fixed-blank,300,300,leftarrow,365,true,1100,focus,yes,584077,Chrome,88.0,macOS,11.1.0,undefined,undefined,1440 x 900,1440 x 900
fr0h,null,null,3,147,left,fixed-blank,300,300,leftarrow,433,true,1500,focus,yes,588123,Chrome,88.0,macOS,11.1.0,undefined,undefined,1440 x 900,1440 x 900
fr0h,null,null,3,148,right,fixed-blank,300,300,rightarrow,305,true,1400,focus,yes,591839,Chrome,88.0,macOS,11.1.0,undefined,undefined,1440 x 900,1440 x 900
fr0h,null,null,3,149,right,fixed-blank,300,300,rightarrow,403,true,1300,focus,yes,595452,Chrome,88.0,macOS,11.1.0,undefined,undefined,1440 x 900,1440 x 900
fr0h,null,null,3,150,left,fixed-blank,300,300,leftarrow,395,true,1000,focus,yes,598456,Chrome,88.0,macOS,11.1.0,undefined,undefined,1440 x 900,1440 x 900
fr0h,null,null,3,151,left,fixed-blank,300,300,leftarrow,373,true,1500,focus,yes,602440,Chrome,88.0,macOS,11.1.0,undefined,undefined,1440 x 900,1440 x 900
fr0h,null,null,3,152,right,fixed-blank,300,300,rightarrow,304,true,1000,focus,yes,605352,Chrome,88.0,macOS,11.1.0,undefined,undefined,1440 x 900,1440 x 900
fr0h,null,null,3,153,right,fixed-blank,300,300,rightarrow,367,true,1400,focus,yes,609129,Chrome,88.0,macOS,11.1.0,undefined,undefined,1440 x 900,1440 x 900
fr0h,null,null,3,154,left,fixed-blank,300,300,leftarrow,316,true,1000,focus,yes,612055,Chrome,88.0,macOS,11.1.0,undefined,undefined,1440 x 900,1440 x 900
fr0h,null,null,3,155,left,fixed-blank,300,300,leftarrow,329,true,1400,focus,yes,615795,Chrome,88.0,macOS,11.1.0,undefined,undefined,1440 x 900,1440 x 900
fr0h,null,null,3,156,right,fixed-blank,300,300,rightarrow,325,true,1100,focus,yes,618930,Chrome,88.0,macOS,11.1.0,undefined,undefined,1440 x 900,1440 x 900
fr0h,null,null,3,157,right,fixed-blank,300,300,rightarrow,275,true,1000,focus,yes,621815,Chrome,88.0,macOS,11.1.0,undefined,undefined,1440 x 900,1440 x 900
fr0h,null,null,3,158,left,fixed-blank,300,300,leftarrow,309,true,1500,focus,yes,625733,Chrome,88.0,macOS,11.1.0,undefined,undefined,1440 x 900,1440 x 900
fr0h,null,null,3,159,right,fixed-blank,300,300,rightarrow,488,true,1100,focus,yes,629029,Chrome,88.0,macOS,11.1.0,undefined,undefined,1440 x 900,1440 x 900
fr0h,null,null,3,160,left,fixed-blank,300,300,leftarrow,340,true,1200,focus,yes,632384,Chrome,88.0,macOS,11.1.0,undefined,undefined,1440 x 900,1440 x 900
fr0h,null,null,3,161,right,fixed-blank,300,300,rightarrow,328,true,1400,focus,yes,636120,Chrome,88.0,macOS,11.1.0,undefined,undefined,1440 x 900,1440 x 900
fr0h,null,null,3,162,left,fixed-blank,300,300,leftarrow,406,true,1400,focus,yes,639935,Chrome,88.0,macOS,11.1.0,undefined,undefined,1440 x 900,1440 x 900
fr0h,null,null,3,163,left,fixed-blank,300,300,leftarrow,405,true,1000,focus,yes,642950,Chrome,88.0,macOS,11.1.0,undefined,undefined,1440 x 900,1440 x 900
fr0h,null,null,3,164,right,fixed-blank,300,300,rightarrow,289,true,1000,focus,yes,645846,Chrome,88.0,macOS,11.1.0,undefined,undefined,1440 x 900,1440 x 900
fr0h,null,null,3,165,right,fixed-blank,300,300,rightarrow,468,true,1100,focus,yes,649123,Chrome,88.0,macOS,11.1.0,undefined,undefined,1440 x 900,1440 x 900
fr0h,null,null,3,166,left,fixed-blank,300,300,leftarrow,397,true,1200,focus,yes,652535,Chrome,88.0,macOS,11.1.0,undefined,undefined,1440 x 900,1440 x 900
fr0h,null,null,3,167,left,fixed-blank,300,300,leftarrow,715,true,1100,focus,yes,656062,Chrome,88.0,macOS,11.1.0,undefined,undefined,1440 x 900,1440 x 900
fr0h,null,null,3,168,right,fixed-blank,300,300,undefined,-600,false,1300,focus,yes,660274,Chrome,88.0,macOS,11.1.0,undefined,undefined,1440 x 900,1440 x 900
fr0h,null,null,3,169,right,fixed-blank,300,300,rightarrow,457,true,1300,focus,yes,665245,Chrome,88.0,macOS,11.1.0,undefined,undefined,1440 x 900,1440 x 900
fr0h,null,null,3,170,left,fixed-blank,300,300,leftarrow,384,true,1300,focus,yes,668845,Chrome,88.0,macOS,11.1.0,undefined,undefined,1440 x 900,1440 x 900
fr0h,null,null,4,171,left,varied,600,0,leftarrow,546,true,1300,focus,yes,680261,Chrome,88.0,macOS,11.1.0,undefined,undefined,1440 x 900,1440 x 900
fr0h,null,null,4,172,right,varied,1000,0,rightarrow,476,true,1000,focus,yes,683746,Chrome,88.0,macOS,11.1.0,undefined,undefined,1440 x 900,1440 x 900
fr0h,null,null,4,173,right,varied,400,0,rightarrow,523,true,1400,focus,yes,687482,Chrome,88.0,macOS,11.1.0,undefined,undefined,1440 x 900,1440 x 900
fr0h,null,null,4,174,left,varied,200,0,leftarrow,965,true,1100,focus,yes,690859,Chrome,88.0,macOS,11.1.0,undefined,undefined,1440 x 900,1440 x 900
fr0h,null,null,4,175,left,varied,1000,0,leftarrow,564,true,1200,focus,yes,694832,Chrome,88.0,macOS,11.1.0,undefined,undefined,1440 x 900,1440 x 900
fr0h,null,null,4,176,right,varied,400,0,rightarrow,477,true,1500,focus,yes,698720,Chrome,88.0,macOS,11.1.0,undefined,undefined,1440 x 900,1440 x 900
fr0h,null,null,4,177,right,varied,1000,0,rightarrow,453,true,1000,focus,yes,702189,Chrome,88.0,macOS,11.1.0,undefined,undefined,1440 x 900,1440 x 900
fr0h,null,null,4,178,left,varied,600,0,leftarrow,454,true,1200,focus,yes,705656,Chrome,88.0,macOS,11.1.0,undefined,undefined,1440 x 900,1440 x 900
fr0h,null,null,4,179,right,varied,1000,0,rightarrow,486,true,1500,focus,yes,710155,Chrome,88.0,macOS,11.1.0,undefined,undefined,1440 x 900,1440 x 900
fr0h,null,null,4,180,left,varied,200,0,leftarrow,430,true,1100,focus,yes,712997,Chrome,88.0,macOS,11.1.0,undefined,undefined,1440 x 900,1440 x 900
fr0h,null,null,4,181,left,varied,400,0,leftarrow,424,true,1300,focus,yes,716432,Chrome,88.0,macOS,11.1.0,undefined,undefined,1440 x 900,1440 x 900
fr0h,null,null,4,182,right,varied,600,0,rightarrow,405,true,1100,focus,yes,719648,Chrome,88.0,macOS,11.1.0,undefined,undefined,1440 x 900,1440 x 900
fr0h,null,null,4,183,left,varied,800,0,leftarrow,315,true,1000,focus,yes,722772,Chrome,88.0,macOS,11.1.0,undefined,undefined,1440 x 900,1440 x 900
fr0h,null,null,4,184,right,varied,600,0,rightarrow,498,true,1000,focus,yes,725881,Chrome,88.0,macOS,11.1.0,undefined,undefined,1440 x 900,1440 x 900
fr0h,null,null,4,185,left,varied,200,0,leftarrow,407,true,1300,focus,yes,729100,Chrome,88.0,macOS,11.1.0,undefined,undefined,1440 x 900,1440 x 900
fr0h,null,null,4,186,right,varied,800,0,rightarrow,462,true,1200,focus,yes,732775,Chrome,88.0,macOS,11.1.0,undefined,undefined,1440 x 900,1440 x 900
fr0h,null,null,4,187,left,varied,1000,0,leftarrow,397,true,1300,focus,yes,736783,Chrome,88.0,macOS,11.1.0,undefined,undefined,1440 x 900,1440 x 900
fr0h,null,null,4,188,right,varied,1000,0,rightarrow,462,true,1500,focus,yes,741251,Chrome,88.0,macOS,11.1.0,undefined,undefined,1440 x 900,1440 x 900
fr0h,null,null,4,189,left,varied,200,0,leftarrow,468,true,1200,focus,yes,744330,Chrome,88.0,macOS,11.1.0,undefined,undefined,1440 x 900,1440 x 900
fr0h,null,null,4,190,right,varied,200,0,rightarrow,431,true,1200,focus,yes,747372,Chrome,88.0,macOS,11.1.0,undefined,undefined,1440 x 900,1440 x 900
fr0h,null,null,4,191,right,varied,400,0,rightarrow,448,true,1200,focus,yes,750632,Chrome,88.0,macOS,11.1.0,undefined,undefined,1440 x 900,1440 x 900
fr0h,null,null,4,192,left,varied,200,0,leftarrow,921,true,1200,focus,yes,754163,Chrome,88.0,macOS,11.1.0,undefined,undefined,1440 x 900,1440 x 900
fr0h,null,null,4,193,right,varied,1000,0,rightarrow,465,true,1200,focus,yes,758042,Chrome,88.0,macOS,11.1.0,undefined,undefined,1440 x 900,1440 x 900
fr0h,null,null,4,194,left,varied,400,0,leftarrow,417,true,1300,focus,yes,761471,Chrome,88.0,macOS,11.1.0,undefined,undefined,1440 x 900,1440 x 900
fr0h,null,null,4,195,left,varied,200,0,leftarrow,419,true,1200,focus,yes,764497,Chrome,88.0,macOS,11.1.0,undefined,undefined,1440 x 900,1440 x 900
fr0h,null,null,4,196,right,varied,600,0,rightarrow,554,true,1500,focus,yes,768662,Chrome,88.0,macOS,11.1.0,undefined,undefined,1440 x 900,1440 x 900
fr0h,null,null,4,197,right,varied,200,0,rightarrow,431,true,1200,focus,yes,771702,Chrome,88.0,macOS,11.1.0,undefined,undefined,1440 x 900,1440 x 900
fr0h,null,null,4,198,left,varied,1000,0,leftarrow,595,true,1500,focus,yes,776310,Chrome,88.0,macOS,11.1.0,undefined,undefined,1440 x 900,1440 x 900
fr0h,null,null,4,199,right,varied,600,0,rightarrow,383,true,1000,focus,yes,779305,Chrome,88.0,macOS,11.1.0,undefined,undefined,1440 x 900,1440 x 900
fr0h,null,null,4,200,left,varied,800,0,leftarrow,435,true,1200,focus,yes,782951,Chrome,88.0,macOS,11.1.0,undefined,undefined,1440 x 900,1440 x 900
fr0h,null,null,4,201,left,varied,600,0,leftarrow,394,true,1000,focus,yes,785955,Chrome,88.0,macOS,11.1.0,undefined,undefined,1440 x 900,1440 x 900
fr0h,null,null,4,202,right,varied,800,0,rightarrow,366,true,1000,focus,yes,789133,Chrome,88.0,macOS,11.1.0,undefined,undefined,1440 x 900,1440 x 900
fr0h,null,null,4,203,left,varied,400,0,leftarrow,463,true,1000,focus,yes,792005,Chrome,88.0,macOS,11.1.0,undefined,undefined,1440 x 900,1440 x 900
fr0h,null,null,4,204,right,varied,400,0,rightarrow,454,true,1500,focus,yes,795870,Chrome,88.0,macOS,11.1.0,undefined,undefined,1440 x 900,1440 x 900
fr0h,null,null,4,205,left,varied,1000,0,leftarrow,372,true,1000,focus,yes,799251,Chrome,88.0,macOS,11.1.0,undefined,undefined,1440 x 900,1440 x 900
fr0h,null,null,4,206,right,varied,400,0,rightarrow,508,true,1100,focus,yes,802374,Chrome,88.0,macOS,11.1.0,undefined,undefined,1440 x 900,1440 x 900
fr0h,null,null,4,207,left,varied,600,0,leftarrow,424,true,1300,focus,yes,806009,Chrome,88.0,macOS,11.1.0,undefined,undefined,1440 x 900,1440 x 900
fr0h,null,null,4,208,right,varied,600,0,rightarrow,364,true,1200,focus,yes,809389,Chrome,88.0,macOS,11.1.0,undefined,undefined,1440 x 900,1440 x 900
fr0h,null,null,4,209,left,varied,400,0,leftarrow,472,true,1000,focus,yes,812273,Chrome,88.0,macOS,11.1.0,undefined,undefined,1440 x 900,1440 x 900
fr0h,null,null,4,210,right,varied,800,0,rightarrow,462,true,1300,focus,yes,816147,Chrome,88.0,macOS,11.1.0,undefined,undefined,1440 x 900,1440 x 900
fr0h,null,null,4,211,left,varied,800,0,leftarrow,380,true,1200,focus,yes,819739,Chrome,88.0,macOS,11.1.0,undefined,undefined,1440 x 900,1440 x 900
fr0h,null,null,4,212,right,varied,800,0,rightarrow,432,true,1400,focus,yes,823783,Chrome,88.0,macOS,11.1.0,undefined,undefined,1440 x 900,1440 x 900
fr0h,null,null,4,213,left,varied,800,0,leftarrow,511,true,1500,focus,yes,828107,Chrome,88.0,macOS,11.1.0,undefined,undefined,1440 x 900,1440 x 900
fr0h,null,null,4,214,right,varied,200,0,rightarrow,383,true,1500,focus,yes,831702,Chrome,88.0,macOS,11.1.0,undefined,undefined,1440 x 900,1440 x 900
fr0h,null,null,4,215,left,varied,800,0,leftarrow,384,true,1100,focus,yes,835098,Chrome,88.0,macOS,11.1.0,undefined,undefined,1440 x 900,1440 x 900
fr0h,null,null,4,216,right,varied,400,0,rightarrow,819,true,1400,focus,yes,839127,Chrome,88.0,macOS,11.1.0,undefined,undefined,1440 x 900,1440 x 900
fr0h,null,null,4,217,right,varied,800,0,rightarrow,504,true,1300,focus,yes,843044,Chrome,88.0,macOS,11.1.0,undefined,undefined,1440 x 900,1440 x 900
fr0h,null,null,4,218,left,varied,400,0,leftarrow,531,true,1000,focus,yes,845988,Chrome,88.0,macOS,11.1.0,undefined,undefined,1440 x 900,1440 x 900
fr0h,null,null,4,219,left,varied,800,0,leftarrow,504,true,1500,focus,yes,850300,Chrome,88.0,macOS,11.1.0,undefined,undefined,1440 x 900,1440 x 900
fr0h,null,null,4,220,right,varied,200,0,rightarrow,534,true,1500,focus,yes,854048,Chrome,88.0,macOS,11.1.0,undefined,undefined,1440 x 900,1440 x 900
fr0h,null,null,5,221,left,fixed-filled,600,0,leftarrow,577,true,1200,focus,yes,864631,Chrome,88.0,macOS,11.1.0,undefined,undefined,1440 x 900,1440 x 900
fr0h,null,null,5,222,right,fixed-filled,600,0,rightarrow,354,true,1100,focus,yes,867794,Chrome,88.0,macOS,11.1.0,undefined,undefined,1440 x 900,1440 x 900
fr0h,null,null,5,223,left,fixed-filled,600,0,leftarrow,467,true,1500,focus,yes,871875,Chrome,88.0,macOS,11.1.0,undefined,undefined,1440 x 900,1440 x 900
fr0h,null,null,5,224,right,fixed-filled,600,0,rightarrow,524,true,1000,focus,yes,875008,Chrome,88.0,macOS,11.1.0,undefined,undefined,1440 x 900,1440 x 900
fr0h,null,null,5,225,left,fixed-filled,600,0,leftarrow,598,true,1200,focus,yes,878619,Chrome,88.0,macOS,11.1.0,undefined,undefined,1440 x 900,1440 x 900
fr0h,null,null,5,226,right,fixed-filled,600,0,rightarrow,442,true,1200,focus,yes,882070,Chrome,88.0,macOS,11.1.0,undefined,undefined,1440 x 900,1440 x 900
fr0h,null,null,5,227,right,fixed-filled,600,0,rightarrow,441,true,1100,focus,yes,885323,Chrome,88.0,macOS,11.1.0,undefined,undefined,1440 x 900,1440 x 900
fr0h,null,null,5,228,left,fixed-filled,600,0,leftarrow,441,true,1200,focus,yes,888775,Chrome,88.0,macOS,11.1.0,undefined,undefined,1440 x 900,1440 x 900
fr0h,null,null,5,229,left,fixed-filled,600,0,leftarrow,461,true,1400,focus,yes,892648,Chrome,88.0,macOS,11.1.0,undefined,undefined,1440 x 900,1440 x 900
fr0h,null,null,5,230,right,fixed-filled,600,0,rightarrow,434,true,1300,focus,yes,896295,Chrome,88.0,macOS,11.1.0,undefined,undefined,1440 x 900,1440 x 900
fr0h,null,null,5,231,left,fixed-filled,600,0,leftarrow,440,true,1000,focus,yes,899341,Chrome,88.0,macOS,11.1.0,undefined,undefined,1440 x 900,1440 x 900
fr0h,null,null,5,232,right,fixed-filled,600,0,rightarrow,501,true,1400,focus,yes,903251,Chrome,88.0,macOS,11.1.0,undefined,undefined,1440 x 900,1440 x 900
fr0h,null,null,5,233,left,fixed-filled,600,0,leftarrow,466,true,1300,focus,yes,906930,Chrome,88.0,macOS,11.1.0,undefined,undefined,1440 x 900,1440 x 900
fr0h,null,null,5,234,right,fixed-filled,600,0,rightarrow,287,true,1500,focus,yes,910827,Chrome,88.0,macOS,11.1.0,undefined,undefined,1440 x 900,1440 x 900
fr0h,null,null,5,235,right,fixed-filled,600,0,rightarrow,402,true,1100,focus,yes,914042,Chrome,88.0,macOS,11.1.0,undefined,undefined,1440 x 900,1440 x 900
fr0h,null,null,5,236,left,fixed-filled,600,0,leftarrow,319,true,1200,focus,yes,917376,Chrome,88.0,macOS,11.1.0,undefined,undefined,1440 x 900,1440 x 900
fr0h,null,null,5,237,right,fixed-filled,600,0,rightarrow,332,true,1500,focus,yes,921323,Chrome,88.0,macOS,11.1.0,undefined,undefined,1440 x 900,1440 x 900
fr0h,null,null,5,238,left,fixed-filled,600,0,leftarrow,348,true,1300,focus,yes,924884,Chrome,88.0,macOS,11.1.0,undefined,undefined,1440 x 900,1440 x 900
fr0h,null,null,5,239,left,fixed-filled,600,0,leftarrow,497,true,1400,focus,yes,928793,Chrome,88.0,macOS,11.1.0,undefined,undefined,1440 x 900,1440 x 900
fr0h,null,null,5,240,right,fixed-filled,600,0,rightarrow,368,true,1200,focus,yes,932168,Chrome,88.0,macOS,11.1.0,undefined,undefined,1440 x 900,1440 x 900
fr0h,null,null,5,241,right,fixed-filled,600,0,rightarrow,410,true,1000,focus,yes,935189,Chrome,88.0,macOS,11.1.0,undefined,undefined,1440 x 900,1440 x 900
fr0h,null,null,5,242,left,fixed-filled,600,0,leftarrow,352,true,1500,focus,yes,939156,Chrome,88.0,macOS,11.1.0,undefined,undefined,1440 x 900,1440 x 900
fr0h,null,null,5,243,left,fixed-filled,600,0,leftarrow,512,true,1100,focus,yes,942481,Chrome,88.0,macOS,11.1.0,undefined,undefined,1440 x 900,1440 x 900
fr0h,null,null,5,244,right,fixed-filled,600,0,rightarrow,534,true,1100,focus,yes,945827,Chrome,88.0,macOS,11.1.0,undefined,undefined,1440 x 900,1440 x 900
fr0h,null,null,5,245,left,fixed-filled,600,0,leftarrow,387,true,1000,focus,yes,948821,Chrome,88.0,macOS,11.1.0,undefined,undefined,1440 x 900,1440 x 900
fr0h,null,null,5,246,right,fixed-filled,600,0,rightarrow,427,true,1100,focus,yes,952060,Chrome,88.0,macOS,11.1.0,undefined,undefined,1440 x 900,1440 x 900
fr0h,null,null,5,247,left,fixed-filled,600,0,leftarrow,454,true,1000,focus,yes,955125,Chrome,88.0,macOS,11.1.0,undefined,undefined,1440 x 900,1440 x 900
fr0h,null,null,5,248,right,fixed-filled,600,0,rightarrow,354,true,1000,focus,yes,958086,Chrome,88.0,macOS,11.1.0,undefined,undefined,1440 x 900,1440 x 900
fr0h,null,null,5,249,right,fixed-filled,600,0,rightarrow,397,true,1500,focus,yes,962094,Chrome,88.0,macOS,11.1.0,undefined,undefined,1440 x 900,1440 x 900
fr0h,null,null,5,250,left,fixed-filled,600,0,leftarrow,422,true,1000,focus,yes,965128,Chrome,88.0,macOS,11.1.0,undefined,undefined,1440 x 900,1440 x 900
fr0h,null,null,5,251,left,fixed-filled,600,0,leftarrow,461,true,1100,focus,yes,968400,Chrome,88.0,macOS,11.1.0,undefined,undefined,1440 x 900,1440 x 900
fr0h,null,null,5,252,right,fixed-filled,600,0,rightarrow,552,true,1100,focus,yes,971762,Chrome,88.0,macOS,11.1.0,undefined,undefined,1440 x 900,1440 x 900
fr0h,null,null,5,253,left,fixed-filled,600,0,leftarrow,329,true,1300,focus,yes,975304,Chrome,88.0,macOS,11.1.0,undefined,undefined,1440 x 900,1440 x 900
fr0h,null,null,5,254,right,fixed-filled,600,0,rightarrow,483,true,1200,focus,yes,978797,Chrome,88.0,macOS,11.1.0,undefined,undefined,1440 x 900,1440 x 900
fr0h,null,null,5,255,left,fixed-filled,600,0,leftarrow,448,true,1100,focus,yes,982056,Chrome,88.0,macOS,11.1.0,undefined,undefined,1440 x 900,1440 x 900
fr0h,null,null,5,256,right,fixed-filled,600,0,rightarrow,507,true,1400,focus,yes,985973,Chrome,88.0,macOS,11.1.0,undefined,undefined,1440 x 900,1440 x 900
fr0h,null,null,5,257,right,fixed-filled,600,0,rightarrow,297,true,1500,focus,yes,989884,Chrome,88.0,macOS,11.1.0,undefined,undefined,1440 x 900,1440 x 900
fr0h,null,null,5,258,left,fixed-filled,600,0,leftarrow,493,true,1000,focus,yes,992989,Chrome,88.0,macOS,11.1.0,undefined,undefined,1440 x 900,1440 x 900
fr0h,null,null,5,259,right,fixed-filled,600,0,rightarrow,648,true,1100,focus,yes,996452,Chrome,88.0,macOS,11.1.0,undefined,undefined,1440 x 900,1440 x 900
fr0h,null,null,5,260,left,fixed-filled,600,0,leftarrow,393,true,1100,focus,yes,999660,Chrome,88.0,macOS,11.1.0,undefined,undefined,1440 x 900,1440 x 900
fr0h,null,null,5,261,right,fixed-filled,600,0,rightarrow,299,true,1100,focus,yes,1002769,Chrome,88.0,macOS,11.1.0,undefined,undefined,1440 x 900,1440 x 900
fr0h,null,null,5,262,left,fixed-filled,600,0,leftarrow,366,true,1500,focus,yes,1006746,Chrome,88.0,macOS,11.1.0,undefined,undefined,1440 x 900,1440 x 900
fr0h,null,null,5,263,right,fixed-filled,600,0,rightarrow,312,true,1300,focus,yes,1010273,Chrome,88.0,macOS,11.1.0,undefined,undefined,1440 x 900,1440 x 900
fr0h,null,null,5,264,left,fixed-filled,600,0,leftarrow,677,true,1500,focus,yes,1014559,Chrome,88.0,macOS,11.1.0,undefined,undefined,1440 x 900,1440 x 900
fr0h,null,null,5,265,right,fixed-filled,600,0,rightarrow,516,true,1000,focus,yes,1017685,Chrome,88.0,macOS,11.1.0,undefined,undefined,1440 x 900,1440 x 900
fr0h,null,null,5,266,left,fixed-filled,600,0,leftarrow,634,true,1200,focus,yes,1021329,Chrome,88.0,macOS,11.1.0,undefined,undefined,1440 x 900,1440 x 900
fr0h,null,null,5,267,left,fixed-filled,600,0,leftarrow,453,true,1400,focus,yes,1025193,Chrome,88.0,macOS,11.1.0,undefined,undefined,1440 x 900,1440 x 900
fr0h,null,null,5,268,right,fixed-filled,600,0,rightarrow,375,true,1400,focus,yes,1028979,Chrome,88.0,macOS,11.1.0,undefined,undefined,1440 x 900,1440 x 900
fr0h,null,null,5,269,right,fixed-filled,600,0,rightarrow,434,true,1000,focus,yes,1032021,Chrome,88.0,macOS,11.1.0,undefined,undefined,1440 x 900,1440 x 900
fr0h,null,null,5,270,left,fixed-filled,600,0,leftarrow,392,true,1400,focus,yes,1035827,Chrome,88.0,macOS,11.1.0,undefined,undefined,1440 x 900,1440 x 900
fr0h,null,null,6,271,right,fixed-blank,300,300,rightarrow,349,true,1100,focus,yes,1046568,Chrome,88.0,macOS,11.1.0,undefined,undefined,1440 x 900,1440 x 900
fr0h,null,null,6,272,left,fixed-blank,300,300,leftarrow,344,true,1500,focus,yes,1050525,Chrome,88.0,macOS,11.1.0,undefined,undefined,1440 x 900,1440 x 900
fr0h,null,null,6,273,right,fixed-blank,300,300,rightarrow,651,true,1300,focus,yes,1054386,Chrome,88.0,macOS,11.1.0,undefined,undefined,1440 x 900,1440 x 900
fr0h,null,null,6,274,left,fixed-blank,300,300,leftarrow,397,true,1300,focus,yes,1057999,Chrome,88.0,macOS,11.1.0,undefined,undefined,1440 x 900,1440 x 900
fr0h,null,null,6,275,left,fixed-blank,300,300,rightarrow,321,false,1100,focus,yes,1061133,Chrome,88.0,macOS,11.1.0,undefined,undefined,1440 x 900,1440 x 900
fr0h,null,null,6,276,right,fixed-blank,300,300,rightarrow,525,true,1100,focus,yes,1064467,Chrome,88.0,macOS,11.1.0,undefined,undefined,1440 x 900,1440 x 900
fr0h,null,null,6,277,left,fixed-blank,300,300,leftarrow,404,true,1300,focus,yes,1068085,Chrome,88.0,macOS,11.1.0,undefined,undefined,1440 x 900,1440 x 900
fr0h,null,null,6,278,right,fixed-blank,300,300,rightarrow,393,true,1200,focus,yes,1071488,Chrome,88.0,macOS,11.1.0,undefined,undefined,1440 x 900,1440 x 900
fr0h,null,null,6,279,right,fixed-blank,300,300,rightarrow,772,true,1000,focus,yes,1074871,Chrome,88.0,macOS,11.1.0,undefined,undefined,1440 x 900,1440 x 900
fr0h,null,null,6,280,left,fixed-blank,300,300,leftarrow,370,true,1500,focus,yes,1078856,Chrome,88.0,macOS,11.1.0,undefined,undefined,1440 x 900,1440 x 900
fr0h,null,null,6,281,left,fixed-blank,300,300,leftarrow,478,true,1400,focus,yes,1082747,Chrome,88.0,macOS,11.1.0,undefined,undefined,1440 x 900,1440 x 900
fr0h,null,null,6,282,right,fixed-blank,300,300,rightarrow,432,true,1000,focus,yes,1085786,Chrome,88.0,macOS,11.1.0,undefined,undefined,1440 x 900,1440 x 900
fr0h,null,null,6,283,right,fixed-blank,300,300,rightarrow,421,true,1100,focus,yes,1089019,Chrome,88.0,macOS,11.1.0,undefined,undefined,1440 x 900,1440 x 900
fr0h,null,null,6,284,left,fixed-blank,300,300,leftarrow,325,true,1300,focus,yes,1092559,Chrome,88.0,macOS,11.1.0,undefined,undefined,1440 x 900,1440 x 900
fr0h,null,null,6,285,right,fixed-blank,300,300,rightarrow,397,true,1400,focus,yes,1096367,Chrome,88.0,macOS,11.1.0,undefined,undefined,1440 x 900,1440 x 900
fr0h,null,null,6,286,left,fixed-blank,300,300,leftarrow,351,true,1300,focus,yes,1099932,Chrome,88.0,macOS,11.1.0,undefined,undefined,1440 x 900,1440 x 900
fr0h,null,null,6,287,right,fixed-blank,300,300,rightarrow,360,true,1100,focus,yes,1103107,Chrome,88.0,macOS,11.1.0,undefined,undefined,1440 x 900,1440 x 900
fr0h,null,null,6,288,left,fixed-blank,300,300,leftarrow,375,true,1000,focus,yes,1106092,Chrome,88.0,macOS,11.1.0,undefined,undefined,1440 x 900,1440 x 900
fr0h,null,null,6,289,left,fixed-blank,300,300,leftarrow,570,true,1000,focus,yes,1109275,Chrome,88.0,macOS,11.1.0,undefined,undefined,1440 x 900,1440 x 900
fr0h,null,null,6,290,right,fixed-blank,300,300,rightarrow,354,true,1500,focus,yes,1113241,Chrome,88.0,macOS,11.1.0,undefined,undefined,1440 x 900,1440 x 900
fr0h,null,null,6,291,left,fixed-blank,300,300,leftarrow,412,true,1300,focus,yes,1116862,Chrome,88.0,macOS,11.1.0,undefined,undefined,1440 x 900,1440 x 900
fr0h,null,null,6,292,right,fixed-blank,300,300,rightarrow,365,true,1100,focus,yes,1120034,Chrome,88.0,macOS,11.1.0,undefined,undefined,1440 x 900,1440 x 900
fr0h,null,null,6,293,left,fixed-blank,300,300,leftarrow,359,true,1500,focus,yes,1124003,Chrome,88.0,macOS,11.1.0,undefined,undefined,1440 x 900,1440 x 900
fr0h,null,null,6,294,right,fixed-blank,300,300,rightarrow,406,true,1100,focus,yes,1127221,Chrome,88.0,macOS,11.1.0,undefined,undefined,1440 x 900,1440 x 900
fr0h,null,null,6,295,right,fixed-blank,300,300,rightarrow,525,true,1300,focus,yes,1130959,Chrome,88.0,macOS,11.1.0,undefined,undefined,1440 x 900,1440 x 900
fr0h,null,null,6,296,left,fixed-blank,300,300,leftarrow,368,true,1500,focus,yes,1134939,Chrome,88.0,macOS,11.1.0,undefined,undefined,1440 x 900,1440 x 900
fr0h,null,null,6,297,right,fixed-blank,300,300,rightarrow,341,true,1100,focus,yes,1138090,Chrome,88.0,macOS,11.1.0,undefined,undefined,1440 x 900,1440 x 900
fr0h,null,null,6,298,left,fixed-blank,300,300,leftarrow,474,true,1200,focus,yes,1141578,Chrome,88.0,macOS,11.1.0,undefined,undefined,1440 x 900,1440 x 900
fr0h,null,null,6,299,left,fixed-blank,300,300,leftarrow,431,true,1000,focus,yes,1144619,Chrome,88.0,macOS,11.1.0,undefined,undefined,1440 x 900,1440 x 900
fr0h,null,null,6,300,right,fixed-blank,300,300,rightarrow,405,true,1500,focus,yes,1148637,Chrome,88.0,macOS,11.1.0,undefined,undefined,1440 x 900,1440 x 900
fr0h,null,null,6,301,left,fixed-blank,300,300,leftarrow,513,true,1100,focus,yes,1151961,Chrome,88.0,macOS,11.1.0,undefined,undefined,1440 x 900,1440 x 900
fr0h,null,null,6,302,right,fixed-blank,300,300,rightarrow,388,true,1100,focus,yes,1155161,Chrome,88.0,macOS,11.1.0,undefined,undefined,1440 x 900,1440 x 900
fr0h,null,null,6,303,left,fixed-blank,300,300,leftarrow,647,true,1100,focus,yes,1158619,Chrome,88.0,macOS,11.1.0,undefined,undefined,1440 x 900,1440 x 900
fr0h,null,null,6,304,right,fixed-blank,300,300,rightarrow,398,true,1500,focus,yes,1162631,Chrome,88.0,macOS,11.1.0,undefined,undefined,1440 x 900,1440 x 900
fr0h,null,null,6,305,left,fixed-blank,300,300,leftarrow,435,true,1300,focus,yes,1166279,Chrome,88.0,macOS,11.1.0,undefined,undefined,1440 x 900,1440 x 900
fr0h,null,null,6,306,right,fixed-blank,300,300,rightarrow,430,true,1400,focus,yes,1170119,Chrome,88.0,macOS,11.1.0,undefined,undefined,1440 x 900,1440 x 900
fr0h,null,null,6,307,right,fixed-blank,300,300,rightarrow,323,true,1300,focus,yes,1173654,Chrome,88.0,macOS,11.1.0,undefined,undefined,1440 x 900,1440 x 900
fr0h,null,null,6,308,left,fixed-blank,300,300,leftarrow,802,true,1300,focus,yes,1177667,Chrome,88.0,macOS,11.1.0,undefined,undefined,1440 x 900,1440 x 900
fr0h,null,null,6,309,right,fixed-blank,300,300,rightarrow,436,true,1300,focus,yes,1181317,Chrome,88.0,macOS,11.1.0,undefined,undefined,1440 x 900,1440 x 900
fr0h,null,null,6,310,left,fixed-blank,300,300,leftarrow,405,true,1000,focus,yes,1184333,Chrome,88.0,macOS,11.1.0,undefined,undefined,1440 x 900,1440 x 900
fr0h,null,null,6,311,right,fixed-blank,300,300,rightarrow,273,true,1100,focus,yes,1187412,Chrome,88.0,macOS,11.1.0,undefined,undefined,1440 x 900,1440 x 900
fr0h,null,null,6,312,left,fixed-blank,300,300,leftarrow,324,true,1000,focus,yes,1190348,Chrome,88.0,macOS,11.1.0,undefined,undefined,1440 x 900,1440 x 900
fr0h,null,null,6,313,right,fixed-blank,300,300,rightarrow,320,true,1200,focus,yes,1193683,Chrome,88.0,macOS,11.1.0,undefined,undefined,1440 x 900,1440 x 900
fr0h,null,null,6,314,left,fixed-blank,300,300,leftarrow,323,true,1400,focus,yes,1197417,Chrome,88.0,macOS,11.1.0,undefined,undefined,1440 x 900,1440 x 900
fr0h,null,null,6,315,right,fixed-blank,300,300,rightarrow,371,true,1200,focus,yes,1200799,Chrome,88.0,macOS,11.1.0,undefined,undefined,1440 x 900,1440 x 900
fr0h,null,null,6,316,left,fixed-blank,300,300,leftarrow,356,true,1500,focus,yes,1204770,Chrome,88.0,macOS,11.1.0,undefined,undefined,1440 x 900,1440 x 900
fr0h,null,null,6,317,left,fixed-blank,300,300,leftarrow,792,true,1400,focus,yes,1208972,Chrome,88.0,macOS,11.1.0,undefined,undefined,1440 x 900,1440 x 900
fr0h,null,null,6,318,right,fixed-blank,300,300,rightarrow,329,true,1000,focus,yes,1211910,Chrome,88.0,macOS,11.1.0,undefined,undefined,1440 x 900,1440 x 900
fr0h,null,null,6,319,left,fixed-blank,300,300,leftarrow,327,true,1300,focus,yes,1215446,Chrome,88.0,macOS,11.1.0,undefined,undefined,1440 x 900,1440 x 900
fr0h,null,null,6,320,right,fixed-blank,300,300,rightarrow,391,true,1100,focus,yes,1218652,Chrome,88.0,macOS,11.1.0,undefined,undefined,1440 x 900,1440 x 900
