subjectID,age,gender,block_i,trial_i,go_cue,block,fixation_duration,blank_interval,response,rt,correct,inter_trial_interval,focus,Fullscreen,time_elapsed,browser_name,browser_version,os_name,os_version,tablet,mobile,screen_resolution,window_resolution
pvmr,null,null,0,1,left,practice,600,0,leftarrow,464,TRUE,1300,focus,yes,27083,Chrome,88,macOS,11.2.1,undefined,undefined,1366 x 768,1366 x 768
pvmr,null,null,0,2,right,practice,600,0,rightarrow,351,TRUE,1200,focus,yes,31201,Chrome,88,macOS,11.2.1,undefined,undefined,1366 x 768,1366 x 768
pvmr,null,null,0,3,left,practice,600,0,leftarrow,376,TRUE,1200,focus,yes,35342,Chrome,88,macOS,11.2.1,undefined,undefined,1366 x 768,1366 x 768
pvmr,null,null,0,4,right,practice,600,0,rightarrow,411,TRUE,1400,focus,yes,39919,Chrome,88,macOS,11.2.1,undefined,undefined,1366 x 768,1366 x 768
pvmr,null,null,0,5,right,practice,600,0,rightarrow,425,TRUE,1200,focus,yes,44112,Chrome,88,macOS,11.2.1,undefined,undefined,1366 x 768,1366 x 768
pvmr,null,null,0,6,left,practice,600,0,leftarrow,390,TRUE,1500,focus,yes,48867,Chrome,88,macOS,11.2.1,undefined,undefined,1366 x 768,1366 x 768
pvmr,null,null,0,7,left,practice,600,0,leftarrow,420,TRUE,1000,focus,yes,52653,Chrome,88,macOS,11.2.1,undefined,undefined,1366 x 768,1366 x 768
pvmr,null,null,0,8,right,practice,600,0,rightarrow,360,TRUE,1500,focus,yes,57379,Chrome,88,macOS,11.2.1,undefined,undefined,1366 x 768,1366 x 768
pvmr,null,null,0,9,right,practice,600,0,rightarrow,383,TRUE,1300,focus,yes,61725,Chrome,88,macOS,11.2.1,undefined,undefined,1366 x 768,1366 x 768
pvmr,null,null,0,10,left,practice,600,0,leftarrow,357,TRUE,1400,focus,yes,66245,Chrome,88,macOS,11.2.1,undefined,undefined,1366 x 768,1366 x 768
pvmr,null,null,0,11,right,practice,600,0,rightarrow,401,TRUE,1100,focus,yes,70205,Chrome,88,macOS,11.2.1,undefined,undefined,1366 x 768,1366 x 768
pvmr,null,null,0,12,left,practice,600,0,leftarrow,487,TRUE,1000,focus,yes,74059,Chrome,88,macOS,11.2.1,undefined,undefined,1366 x 768,1366 x 768
pvmr,null,null,0,13,right,practice,600,0,rightarrow,399,TRUE,1300,focus,yes,78430,Chrome,88,macOS,11.2.1,undefined,undefined,1366 x 768,1366 x 768
pvmr,null,null,0,14,left,practice,600,0,leftarrow,478,TRUE,1100,focus,yes,82470,Chrome,88,macOS,11.2.1,undefined,undefined,1366 x 768,1366 x 768
pvmr,null,null,0,15,right,practice,600,0,rightarrow,322,TRUE,1100,focus,yes,86355,Chrome,88,macOS,11.2.1,undefined,undefined,1366 x 768,1366 x 768
pvmr,null,null,0,16,left,practice,600,0,leftarrow,415,TRUE,1200,focus,yes,90537,Chrome,88,macOS,11.2.1,undefined,undefined,1366 x 768,1366 x 768
pvmr,null,null,0,17,left,practice,600,0,leftarrow,419,TRUE,1500,focus,yes,95323,Chrome,88,macOS,11.2.1,undefined,undefined,1366 x 768,1366 x 768
pvmr,null,null,0,18,right,practice,600,0,rightarrow,320,TRUE,1100,focus,yes,99205,Chrome,88,macOS,11.2.1,undefined,undefined,1366 x 768,1366 x 768
pvmr,null,null,0,19,right,practice,600,0,rightarrow,383,TRUE,1400,focus,yes,103753,Chrome,88,macOS,11.2.1,undefined,undefined,1366 x 768,1366 x 768
pvmr,null,null,0,20,left,practice,600,0,leftarrow,527,TRUE,1400,focus,yes,108444,Chrome,88,macOS,11.2.1,undefined,undefined,1366 x 768,1366 x 768
pvmr,null,null,1,21,right,fixed-blank,300,300,rightarrow,377,TRUE,1500,focus,yes,121980,Chrome,88,macOS,11.2.1,undefined,undefined,1366 x 768,1366 x 768
pvmr,null,null,1,22,left,fixed-blank,300,300,leftarrow,397,TRUE,1300,focus,yes,125587,Chrome,88,macOS,11.2.1,undefined,undefined,1366 x 768,1366 x 768
pvmr,null,null,1,23,right,fixed-blank,300,300,rightarrow,298,TRUE,1000,focus,yes,128498,Chrome,88,macOS,11.2.1,undefined,undefined,1366 x 768,1366 x 768
pvmr,null,null,1,24,left,fixed-blank,300,300,leftarrow,376,TRUE,1300,focus,yes,132086,Chrome,88,macOS,11.2.1,undefined,undefined,1366 x 768,1366 x 768
pvmr,null,null,1,25,right,fixed-blank,300,300,rightarrow,316,TRUE,1000,focus,yes,135019,Chrome,88,macOS,11.2.1,undefined,undefined,1366 x 768,1366 x 768
pvmr,null,null,1,26,left,fixed-blank,300,300,leftarrow,381,TRUE,1300,focus,yes,138614,Chrome,88,macOS,11.2.1,undefined,undefined,1366 x 768,1366 x 768
pvmr,null,null,1,27,left,fixed-blank,300,300,leftarrow,495,TRUE,1200,focus,yes,142120,Chrome,88,macOS,11.2.1,undefined,undefined,1366 x 768,1366 x 768
pvmr,null,null,1,28,right,fixed-blank,300,300,rightarrow,358,TRUE,1000,focus,yes,145090,Chrome,88,macOS,11.2.1,undefined,undefined,1366 x 768,1366 x 768
pvmr,null,null,1,29,right,fixed-blank,300,300,rightarrow,437,TRUE,1500,focus,yes,149140,Chrome,88,macOS,11.2.1,undefined,undefined,1366 x 768,1366 x 768
pvmr,null,null,1,30,left,fixed-blank,300,300,leftarrow,375,TRUE,1200,focus,yes,152529,Chrome,88,macOS,11.2.1,undefined,undefined,1366 x 768,1366 x 768
pvmr,null,null,1,31,left,fixed-blank,300,300,leftarrow,490,TRUE,1300,focus,yes,156226,Chrome,88,macOS,11.2.1,undefined,undefined,1366 x 768,1366 x 768
pvmr,null,null,1,32,right,fixed-blank,300,300,rightarrow,370,TRUE,1300,focus,yes,159805,Chrome,88,macOS,11.2.1,undefined,undefined,1366 x 768,1366 x 768
pvmr,null,null,1,33,left,fixed-blank,300,300,leftarrow,501,TRUE,1200,focus,yes,163316,Chrome,88,macOS,11.2.1,undefined,undefined,1366 x 768,1366 x 768
pvmr,null,null,1,34,right,fixed-blank,300,300,rightarrow,302,TRUE,1300,focus,yes,166829,Chrome,88,macOS,11.2.1,undefined,undefined,1366 x 768,1366 x 768
pvmr,null,null,1,35,left,fixed-blank,300,300,leftarrow,332,TRUE,1000,focus,yes,169770,Chrome,88,macOS,11.2.1,undefined,undefined,1366 x 768,1366 x 768
pvmr,null,null,1,36,right,fixed-blank,300,300,rightarrow,266,TRUE,1300,focus,yes,173250,Chrome,88,macOS,11.2.1,undefined,undefined,1366 x 768,1366 x 768
pvmr,null,null,1,37,right,fixed-blank,300,300,rightarrow,373,TRUE,1400,focus,yes,177033,Chrome,88,macOS,11.2.1,undefined,undefined,1366 x 768,1366 x 768
pvmr,null,null,1,38,left,fixed-blank,300,300,leftarrow,326,TRUE,1300,focus,yes,180571,Chrome,88,macOS,11.2.1,undefined,undefined,1366 x 768,1366 x 768
pvmr,null,null,1,39,right,fixed-blank,300,300,rightarrow,322,TRUE,1400,focus,yes,184306,Chrome,88,macOS,11.2.1,undefined,undefined,1366 x 768,1366 x 768
pvmr,null,null,1,40,left,fixed-blank,300,300,leftarrow,366,TRUE,1200,focus,yes,187683,Chrome,88,macOS,11.2.1,undefined,undefined,1366 x 768,1366 x 768
pvmr,null,null,1,41,right,fixed-blank,300,300,rightarrow,468,TRUE,1300,focus,yes,191364,Chrome,88,macOS,11.2.1,undefined,undefined,1366 x 768,1366 x 768
pvmr,null,null,1,42,left,fixed-blank,300,300,leftarrow,435,TRUE,1400,focus,yes,195209,Chrome,88,macOS,11.2.1,undefined,undefined,1366 x 768,1366 x 768
pvmr,null,null,1,43,right,fixed-blank,300,300,rightarrow,334,TRUE,1400,focus,yes,198953,Chrome,88,macOS,11.2.1,undefined,undefined,1366 x 768,1366 x 768
pvmr,null,null,1,44,left,fixed-blank,300,300,leftarrow,419,TRUE,1200,focus,yes,202385,Chrome,88,macOS,11.2.1,undefined,undefined,1366 x 768,1366 x 768
pvmr,null,null,1,45,left,fixed-blank,300,300,leftarrow,473,TRUE,1300,focus,yes,206074,Chrome,88,macOS,11.2.1,undefined,undefined,1366 x 768,1366 x 768
pvmr,null,null,1,46,right,fixed-blank,300,300,rightarrow,363,TRUE,1200,focus,yes,209448,Chrome,88,macOS,11.2.1,undefined,undefined,1366 x 768,1366 x 768
pvmr,null,null,1,47,right,fixed-blank,300,300,rightarrow,389,TRUE,1500,focus,yes,213447,Chrome,88,macOS,11.2.1,undefined,undefined,1366 x 768,1366 x 768
pvmr,null,null,1,48,left,fixed-blank,300,300,leftarrow,337,TRUE,1500,focus,yes,217399,Chrome,88,macOS,11.2.1,undefined,undefined,1366 x 768,1366 x 768
pvmr,null,null,1,49,left,fixed-blank,300,300,leftarrow,446,TRUE,1100,focus,yes,220656,Chrome,88,macOS,11.2.1,undefined,undefined,1366 x 768,1366 x 768
pvmr,null,null,1,50,right,fixed-blank,300,300,rightarrow,837,TRUE,1100,focus,yes,224305,Chrome,88,macOS,11.2.1,undefined,undefined,1366 x 768,1366 x 768
pvmr,null,null,1,51,right,fixed-blank,300,300,rightarrow,460,TRUE,1500,focus,yes,228379,Chrome,88,macOS,11.2.1,undefined,undefined,1366 x 768,1366 x 768
pvmr,null,null,1,52,left,fixed-blank,300,300,leftarrow,405,TRUE,1200,focus,yes,231797,Chrome,88,macOS,11.2.1,undefined,undefined,1366 x 768,1366 x 768
pvmr,null,null,1,53,left,fixed-blank,300,300,leftarrow,469,TRUE,1400,focus,yes,235678,Chrome,88,macOS,11.2.1,undefined,undefined,1366 x 768,1366 x 768
pvmr,null,null,1,54,right,fixed-blank,300,300,rightarrow,421,TRUE,1400,focus,yes,239509,Chrome,88,macOS,11.2.1,undefined,undefined,1366 x 768,1366 x 768
pvmr,null,null,1,55,left,fixed-blank,300,300,leftarrow,430,TRUE,1200,focus,yes,242950,Chrome,88,macOS,11.2.1,undefined,undefined,1366 x 768,1366 x 768
pvmr,null,null,1,56,right,fixed-blank,300,300,rightarrow,309,TRUE,1500,focus,yes,246872,Chrome,88,macOS,11.2.1,undefined,undefined,1366 x 768,1366 x 768
pvmr,null,null,1,57,left,fixed-blank,300,300,leftarrow,413,TRUE,1100,focus,yes,250094,Chrome,88,macOS,11.2.1,undefined,undefined,1366 x 768,1366 x 768
pvmr,null,null,1,58,right,fixed-blank,300,300,rightarrow,378,TRUE,1000,focus,yes,253081,Chrome,88,macOS,11.2.1,undefined,undefined,1366 x 768,1366 x 768
pvmr,null,null,1,59,left,fixed-blank,300,300,leftarrow,459,TRUE,1400,focus,yes,256954,Chrome,88,macOS,11.2.1,undefined,undefined,1366 x 768,1366 x 768
pvmr,null,null,1,60,right,fixed-blank,300,300,rightarrow,379,TRUE,1000,focus,yes,259940,Chrome,88,macOS,11.2.1,undefined,undefined,1366 x 768,1366 x 768
pvmr,null,null,1,61,right,fixed-blank,300,300,rightarrow,374,TRUE,1400,focus,yes,263727,Chrome,88,macOS,11.2.1,undefined,undefined,1366 x 768,1366 x 768
pvmr,null,null,1,62,left,fixed-blank,300,300,leftarrow,471,TRUE,1500,focus,yes,267809,Chrome,88,macOS,11.2.1,undefined,undefined,1366 x 768,1366 x 768
pvmr,null,null,1,63,right,fixed-blank,300,300,rightarrow,356,TRUE,1000,focus,yes,270775,Chrome,88,macOS,11.2.1,undefined,undefined,1366 x 768,1366 x 768
pvmr,null,null,1,64,left,fixed-blank,300,300,leftarrow,454,TRUE,1200,focus,yes,274240,Chrome,88,macOS,11.2.1,undefined,undefined,1366 x 768,1366 x 768
pvmr,null,null,1,65,left,fixed-blank,300,300,leftarrow,444,TRUE,1300,focus,yes,277893,Chrome,88,macOS,11.2.1,undefined,undefined,1366 x 768,1366 x 768
pvmr,null,null,1,66,right,fixed-blank,300,300,rightarrow,345,TRUE,1000,focus,yes,280846,Chrome,88,macOS,11.2.1,undefined,undefined,1366 x 768,1366 x 768
pvmr,null,null,1,67,left,fixed-blank,300,300,leftarrow,394,TRUE,1000,focus,yes,283853,Chrome,88,macOS,11.2.1,undefined,undefined,1366 x 768,1366 x 768
pvmr,null,null,1,68,right,fixed-blank,300,300,rightarrow,356,TRUE,1500,focus,yes,287820,Chrome,88,macOS,11.2.1,undefined,undefined,1366 x 768,1366 x 768
pvmr,null,null,1,69,right,fixed-blank,300,300,rightarrow,418,TRUE,1400,focus,yes,291644,Chrome,88,macOS,11.2.1,undefined,undefined,1366 x 768,1366 x 768
pvmr,null,null,1,70,left,fixed-blank,300,300,leftarrow,468,TRUE,1500,focus,yes,295726,Chrome,88,macOS,11.2.1,undefined,undefined,1366 x 768,1366 x 768
pvmr,null,null,2,71,left,fixed-blank,300,300,leftarrow,332,TRUE,1000,focus,yes,303190,Chrome,88,macOS,11.2.1,undefined,undefined,1366 x 768,1366 x 768
pvmr,null,null,2,72,right,fixed-blank,300,300,rightarrow,284,TRUE,1400,focus,yes,306888,Chrome,88,macOS,11.2.1,undefined,undefined,1366 x 768,1366 x 768
pvmr,null,null,2,73,left,fixed-blank,300,300,leftarrow,418,TRUE,1500,focus,yes,310917,Chrome,88,macOS,11.2.1,undefined,undefined,1366 x 768,1366 x 768
pvmr,null,null,2,74,right,fixed-blank,300,300,rightarrow,327,TRUE,1400,focus,yes,314658,Chrome,88,macOS,11.2.1,undefined,undefined,1366 x 768,1366 x 768
pvmr,null,null,2,75,left,fixed-blank,300,300,leftarrow,511,TRUE,1400,focus,yes,318583,Chrome,88,macOS,11.2.1,undefined,undefined,1366 x 768,1366 x 768
pvmr,null,null,2,76,right,fixed-blank,300,300,rightarrow,398,TRUE,1000,focus,yes,321588,Chrome,88,macOS,11.2.1,undefined,undefined,1366 x 768,1366 x 768
pvmr,null,null,2,77,right,fixed-blank,300,300,rightarrow,444,TRUE,1100,focus,yes,324843,Chrome,88,macOS,11.2.1,undefined,undefined,1366 x 768,1366 x 768
pvmr,null,null,2,78,left,fixed-blank,300,300,leftarrow,422,TRUE,1500,focus,yes,328877,Chrome,88,macOS,11.2.1,undefined,undefined,1366 x 768,1366 x 768
pvmr,null,null,2,79,right,fixed-blank,300,300,rightarrow,327,TRUE,1000,focus,yes,331816,Chrome,88,macOS,11.2.1,undefined,undefined,1366 x 768,1366 x 768
pvmr,null,null,2,80,left,fixed-blank,300,300,leftarrow,343,TRUE,1200,focus,yes,335175,Chrome,88,macOS,11.2.1,undefined,undefined,1366 x 768,1366 x 768
pvmr,null,null,2,81,right,fixed-blank,300,300,rightarrow,409,TRUE,1400,focus,yes,338993,Chrome,88,macOS,11.2.1,undefined,undefined,1366 x 768,1366 x 768
pvmr,null,null,2,82,left,fixed-blank,300,300,leftarrow,305,TRUE,1300,focus,yes,342508,Chrome,88,macOS,11.2.1,undefined,undefined,1366 x 768,1366 x 768
pvmr,null,null,2,83,left,fixed-blank,300,300,leftarrow,438,TRUE,1400,focus,yes,346360,Chrome,88,macOS,11.2.1,undefined,undefined,1366 x 768,1366 x 768
pvmr,null,null,2,84,right,fixed-blank,300,300,rightarrow,289,TRUE,1300,focus,yes,349861,Chrome,88,macOS,11.2.1,undefined,undefined,1366 x 768,1366 x 768
pvmr,null,null,2,85,left,fixed-blank,300,300,leftarrow,332,TRUE,1000,focus,yes,352803,Chrome,88,macOS,11.2.1,undefined,undefined,1366 x 768,1366 x 768
pvmr,null,null,2,86,right,fixed-blank,300,300,rightarrow,354,TRUE,1300,focus,yes,356366,Chrome,88,macOS,11.2.1,undefined,undefined,1366 x 768,1366 x 768
pvmr,null,null,2,87,left,fixed-blank,300,300,leftarrow,353,TRUE,1500,focus,yes,360333,Chrome,88,macOS,11.2.1,undefined,undefined,1366 x 768,1366 x 768
pvmr,null,null,2,88,right,fixed-blank,300,300,rightarrow,335,TRUE,1300,focus,yes,363879,Chrome,88,macOS,11.2.1,undefined,undefined,1366 x 768,1366 x 768
pvmr,null,null,2,89,right,fixed-blank,300,300,leftarrow,369,FALSE,1300,focus,yes,367460,Chrome,88,macOS,11.2.1,undefined,undefined,1366 x 768,1366 x 768
pvmr,null,null,2,90,left,fixed-blank,300,300,leftarrow,368,TRUE,1400,focus,yes,371240,Chrome,88,macOS,11.2.1,undefined,undefined,1366 x 768,1366 x 768
pvmr,null,null,2,91,left,fixed-blank,300,300,leftarrow,402,TRUE,1300,focus,yes,374854,Chrome,88,macOS,11.2.1,undefined,undefined,1366 x 768,1366 x 768
pvmr,null,null,2,92,right,fixed-blank,300,300,rightarrow,348,TRUE,1300,focus,yes,378415,Chrome,88,macOS,11.2.1,undefined,undefined,1366 x 768,1366 x 768
pvmr,null,null,2,93,right,fixed-blank,300,300,rightarrow,356,TRUE,1200,focus,yes,381784,Chrome,88,macOS,11.2.1,undefined,undefined,1366 x 768,1366 x 768
pvmr,null,null,2,94,left,fixed-blank,300,300,leftarrow,371,TRUE,1100,focus,yes,384965,Chrome,88,macOS,11.2.1,undefined,undefined,1366 x 768,1366 x 768
pvmr,null,null,2,95,right,fixed-blank,300,300,rightarrow,384,TRUE,1200,focus,yes,388358,Chrome,88,macOS,11.2.1,undefined,undefined,1366 x 768,1366 x 768
pvmr,null,null,2,96,left,fixed-blank,300,300,leftarrow,354,TRUE,1000,focus,yes,391327,Chrome,88,macOS,11.2.1,undefined,undefined,1366 x 768,1366 x 768
pvmr,null,null,2,97,right,fixed-blank,300,300,rightarrow,401,TRUE,1500,focus,yes,395343,Chrome,88,macOS,11.2.1,undefined,undefined,1366 x 768,1366 x 768
pvmr,null,null,2,98,left,fixed-blank,300,300,leftarrow,316,TRUE,1200,focus,yes,398673,Chrome,88,macOS,11.2.1,undefined,undefined,1366 x 768,1366 x 768
pvmr,null,null,2,99,left,fixed-blank,300,300,leftarrow,442,TRUE,1500,focus,yes,402728,Chrome,88,macOS,11.2.1,undefined,undefined,1366 x 768,1366 x 768
pvmr,null,null,2,100,right,fixed-blank,300,300,rightarrow,358,TRUE,1200,focus,yes,406099,Chrome,88,macOS,11.2.1,undefined,undefined,1366 x 768,1366 x 768
pvmr,null,null,2,101,left,fixed-blank,300,300,leftarrow,401,TRUE,1300,focus,yes,409714,Chrome,88,macOS,11.2.1,undefined,undefined,1366 x 768,1366 x 768
pvmr,null,null,2,102,right,fixed-blank,300,300,rightarrow,345,TRUE,1100,focus,yes,412869,Chrome,88,macOS,11.2.1,undefined,undefined,1366 x 768,1366 x 768
pvmr,null,null,2,103,left,fixed-blank,300,300,leftarrow,408,TRUE,1100,focus,yes,416090,Chrome,88,macOS,11.2.1,undefined,undefined,1366 x 768,1366 x 768
pvmr,null,null,2,104,right,fixed-blank,300,300,rightarrow,402,TRUE,1100,focus,yes,419305,Chrome,88,macOS,11.2.1,undefined,undefined,1366 x 768,1366 x 768
pvmr,null,null,2,105,right,fixed-blank,300,300,rightarrow,359,TRUE,1400,focus,yes,423078,Chrome,88,macOS,11.2.1,undefined,undefined,1366 x 768,1366 x 768
pvmr,null,null,2,106,left,fixed-blank,300,300,leftarrow,403,TRUE,1400,focus,yes,426895,Chrome,88,macOS,11.2.1,undefined,undefined,1366 x 768,1366 x 768
pvmr,null,null,2,107,left,fixed-blank,300,300,leftarrow,605,TRUE,1100,focus,yes,430314,Chrome,88,macOS,11.2.1,undefined,undefined,1366 x 768,1366 x 768
pvmr,null,null,2,108,right,fixed-blank,300,300,rightarrow,337,TRUE,1200,focus,yes,433662,Chrome,88,macOS,11.2.1,undefined,undefined,1366 x 768,1366 x 768
pvmr,null,null,2,109,left,fixed-blank,300,300,leftarrow,475,TRUE,1500,focus,yes,437750,Chrome,88,macOS,11.2.1,undefined,undefined,1366 x 768,1366 x 768
pvmr,null,null,2,110,right,fixed-blank,300,300,rightarrow,382,TRUE,1500,focus,yes,441745,Chrome,88,macOS,11.2.1,undefined,undefined,1366 x 768,1366 x 768
pvmr,null,null,2,111,left,fixed-blank,300,300,leftarrow,433,TRUE,1100,focus,yes,444991,Chrome,88,macOS,11.2.1,undefined,undefined,1366 x 768,1366 x 768
pvmr,null,null,2,112,right,fixed-blank,300,300,rightarrow,338,TRUE,1000,focus,yes,447941,Chrome,88,macOS,11.2.1,undefined,undefined,1366 x 768,1366 x 768
pvmr,null,null,2,113,right,fixed-blank,300,300,rightarrow,409,TRUE,1300,focus,yes,451564,Chrome,88,macOS,11.2.1,undefined,undefined,1366 x 768,1366 x 768
pvmr,null,null,2,114,left,fixed-blank,300,300,leftarrow,370,TRUE,1500,focus,yes,455544,Chrome,88,macOS,11.2.1,undefined,undefined,1366 x 768,1366 x 768
pvmr,null,null,2,115,left,fixed-blank,300,300,leftarrow,357,TRUE,1500,focus,yes,459512,Chrome,88,macOS,11.2.1,undefined,undefined,1366 x 768,1366 x 768
pvmr,null,null,2,116,right,fixed-blank,300,300,rightarrow,411,TRUE,1100,focus,yes,462732,Chrome,88,macOS,11.2.1,undefined,undefined,1366 x 768,1366 x 768
pvmr,null,null,2,117,left,fixed-blank,300,300,leftarrow,532,TRUE,1200,focus,yes,466277,Chrome,88,macOS,11.2.1,undefined,undefined,1366 x 768,1366 x 768
pvmr,null,null,2,118,right,fixed-blank,300,300,rightarrow,551,TRUE,1500,focus,yes,470441,Chrome,88,macOS,11.2.1,undefined,undefined,1366 x 768,1366 x 768
pvmr,null,null,2,119,left,fixed-blank,300,300,leftarrow,330,TRUE,1200,focus,yes,473780,Chrome,88,macOS,11.2.1,undefined,undefined,1366 x 768,1366 x 768
pvmr,null,null,2,120,right,fixed-blank,300,300,rightarrow,341,TRUE,1200,focus,yes,477135,Chrome,88,macOS,11.2.1,undefined,undefined,1366 x 768,1366 x 768
pvmr,null,null,3,121,left,varied,600,0,leftarrow,458,TRUE,1100,focus,yes,486780,Chrome,88,macOS,11.2.1,undefined,undefined,1366 x 768,1366 x 768
pvmr,null,null,3,122,right,varied,800,0,rightarrow,427,TRUE,1300,focus,yes,490621,Chrome,88,macOS,11.2.1,undefined,undefined,1366 x 768,1366 x 768
pvmr,null,null,3,123,right,varied,800,0,rightarrow,427,TRUE,1100,focus,yes,494057,Chrome,88,macOS,11.2.1,undefined,undefined,1366 x 768,1366 x 768
pvmr,null,null,3,124,left,varied,600,0,leftarrow,894,TRUE,1000,focus,yes,497563,Chrome,88,macOS,11.2.1,undefined,undefined,1366 x 768,1366 x 768
pvmr,null,null,3,125,right,varied,800,0,rightarrow,322,TRUE,1400,focus,yes,501499,Chrome,88,macOS,11.2.1,undefined,undefined,1366 x 768,1366 x 768
pvmr,null,null,3,126,left,varied,800,0,leftarrow,525,TRUE,1100,focus,yes,505036,Chrome,88,macOS,11.2.1,undefined,undefined,1366 x 768,1366 x 768
pvmr,null,null,3,127,left,varied,800,0,leftarrow,404,TRUE,1300,focus,yes,508851,Chrome,88,macOS,11.2.1,undefined,undefined,1366 x 768,1366 x 768
pvmr,null,null,3,128,right,varied,200,0,rightarrow,362,TRUE,1300,focus,yes,512027,Chrome,88,macOS,11.2.1,undefined,undefined,1366 x 768,1366 x 768
pvmr,null,null,3,129,right,varied,800,0,rightarrow,411,TRUE,1300,focus,yes,515844,Chrome,88,macOS,11.2.1,undefined,undefined,1366 x 768,1366 x 768
pvmr,null,null,3,130,left,varied,800,0,leftarrow,365,TRUE,1100,focus,yes,519217,Chrome,88,macOS,11.2.1,undefined,undefined,1366 x 768,1366 x 768
pvmr,null,null,3,131,left,varied,200,0,leftarrow,749,TRUE,1000,focus,yes,522177,Chrome,88,macOS,11.2.1,undefined,undefined,1366 x 768,1366 x 768
pvmr,null,null,3,132,right,varied,200,0,rightarrow,444,TRUE,1200,focus,yes,525229,Chrome,88,macOS,11.2.1,undefined,undefined,1366 x 768,1366 x 768
pvmr,null,null,3,133,right,varied,400,0,rightarrow,407,TRUE,1500,focus,yes,529047,Chrome,88,macOS,11.2.1,undefined,undefined,1366 x 768,1366 x 768
pvmr,null,null,3,134,left,varied,1000,0,leftarrow,551,TRUE,1200,focus,yes,533008,Chrome,88,macOS,11.2.1,undefined,undefined,1366 x 768,1366 x 768
pvmr,null,null,3,135,left,varied,200,0,leftarrow,721,TRUE,1400,focus,yes,536745,Chrome,88,macOS,11.2.1,undefined,undefined,1366 x 768,1366 x 768
pvmr,null,null,3,136,right,varied,1000,0,rightarrow,360,TRUE,1500,focus,yes,541117,Chrome,88,macOS,11.2.1,undefined,undefined,1366 x 768,1366 x 768
pvmr,null,null,3,137,left,varied,600,0,leftarrow,472,TRUE,1500,focus,yes,545200,Chrome,88,macOS,11.2.1,undefined,undefined,1366 x 768,1366 x 768
pvmr,null,null,3,138,right,varied,400,0,rightarrow,972,TRUE,1000,focus,yes,548584,Chrome,88,macOS,11.2.1,undefined,undefined,1366 x 768,1366 x 768
pvmr,null,null,3,139,right,varied,600,0,rightarrow,454,TRUE,1100,focus,yes,551849,Chrome,88,macOS,11.2.1,undefined,undefined,1366 x 768,1366 x 768
pvmr,null,null,3,140,left,varied,400,0,leftarrow,387,TRUE,1400,focus,yes,555449,Chrome,88,macOS,11.2.1,undefined,undefined,1366 x 768,1366 x 768
pvmr,null,null,3,141,left,varied,1000,0,leftarrow,406,TRUE,1300,focus,yes,559466,Chrome,88,macOS,11.2.1,undefined,undefined,1366 x 768,1366 x 768
pvmr,null,null,3,142,right,varied,1000,0,rightarrow,503,TRUE,1000,focus,yes,562983,Chrome,88,macOS,11.2.1,undefined,undefined,1366 x 768,1366 x 768
pvmr,null,null,3,143,right,varied,200,0,rightarrow,399,TRUE,1100,focus,yes,565795,Chrome,88,macOS,11.2.1,undefined,undefined,1366 x 768,1366 x 768
pvmr,null,null,3,144,left,varied,1000,0,leftarrow,375,TRUE,1000,focus,yes,569183,Chrome,88,macOS,11.2.1,undefined,undefined,1366 x 768,1366 x 768
pvmr,null,null,3,145,left,varied,400,0,leftarrow,426,TRUE,1100,focus,no,572217,Chrome,88,macOS,11.2.1,undefined,undefined,1366 x 768,1331 x 632
pvmr,null,null,3,146,right,varied,200,0,rightarrow,418,TRUE,1200,focus,no,575245,Chrome,88,macOS,11.2.1,undefined,undefined,1366 x 768,1331 x 632
pvmr,null,null,3,147,right,varied,200,0,rightarrow,336,TRUE,1500,focus,no,578794,Chrome,88,macOS,11.2.1,undefined,undefined,1366 x 768,1331 x 632
pvmr,null,null,3,148,left,varied,400,0,leftarrow,525,TRUE,1000,focus,no,581724,Chrome,88,macOS,11.2.1,undefined,undefined,1366 x 768,1331 x 632
pvmr,null,null,3,149,right,varied,600,0,undefined,-600,FALSE,1400,focus,no,586140,Chrome,88,macOS,11.2.1,undefined,undefined,1366 x 768,1331 x 632
pvmr,null,null,3,150,left,varied,600,0,leftarrow,800,TRUE,1100,focus,no,589753,Chrome,88,macOS,11.2.1,undefined,undefined,1366 x 768,1331 x 632
pvmr,null,null,3,151,right,varied,1000,0,rightarrow,327,TRUE,1000,focus,no,593091,Chrome,88,macOS,11.2.1,undefined,undefined,1366 x 768,1331 x 632
pvmr,null,null,3,152,left,varied,800,0,leftarrow,321,TRUE,1100,focus,no,596430,Chrome,88,macOS,11.2.1,undefined,undefined,1366 x 768,1331 x 632
pvmr,null,null,3,153,left,varied,200,0,leftarrow,720,TRUE,1200,focus,no,599762,Chrome,88,macOS,11.2.1,undefined,undefined,1366 x 768,1331 x 632
pvmr,null,null,3,154,right,varied,1000,0,rightarrow,979,TRUE,1100,focus,no,603947,Chrome,88,macOS,11.2.1,undefined,undefined,1366 x 768,1331 x 632
pvmr,null,null,3,155,left,varied,800,0,leftarrow,816,TRUE,1400,focus,no,608375,Chrome,88,macOS,11.2.1,undefined,undefined,1366 x 768,1331 x 632
pvmr,null,null,3,156,right,varied,400,0,rightarrow,522,TRUE,1200,focus,no,611712,Chrome,88,macOS,11.2.1,undefined,undefined,1366 x 768,1331 x 632
pvmr,null,null,3,157,right,varied,200,0,rightarrow,645,TRUE,1000,focus,no,614571,Chrome,88,macOS,11.2.1,undefined,undefined,1366 x 768,1331 x 632
pvmr,null,null,3,158,left,varied,1000,0,leftarrow,377,TRUE,1500,focus,no,618962,Chrome,88,macOS,11.2.1,undefined,undefined,1366 x 768,1331 x 632
pvmr,null,null,3,159,right,varied,200,0,rightarrow,751,TRUE,1000,focus,no,621923,Chrome,88,macOS,11.2.1,undefined,undefined,1366 x 768,1331 x 632
pvmr,null,null,3,160,left,varied,200,0,leftarrow,652,TRUE,1100,focus,no,624988,Chrome,88,macOS,11.2.1,undefined,undefined,1366 x 768,1331 x 632
pvmr,null,null,3,161,left,varied,800,0,leftarrow,394,TRUE,1300,focus,no,628793,Chrome,88,macOS,11.2.1,undefined,undefined,1366 x 768,1331 x 632
pvmr,null,null,3,162,right,varied,600,0,rightarrow,368,TRUE,1200,focus,no,632174,Chrome,88,macOS,11.2.1,undefined,undefined,1366 x 768,1331 x 632
pvmr,null,null,3,163,left,varied,800,0,leftarrow,404,TRUE,1400,focus,no,636189,Chrome,88,macOS,11.2.1,undefined,undefined,1366 x 768,1331 x 632
pvmr,null,null,3,164,right,varied,600,0,rightarrow,453,TRUE,1000,focus,no,639253,Chrome,88,macOS,11.2.1,undefined,undefined,1366 x 768,1331 x 632
pvmr,null,null,3,165,right,varied,1000,0,undefined,-1000,FALSE,1200,focus,no,643667,Chrome,88,macOS,11.2.1,undefined,undefined,1366 x 768,1331 x 632
pvmr,null,null,3,166,left,varied,800,0,leftarrow,356,TRUE,1400,focus,no,649043,Chrome,88,macOS,11.2.1,undefined,undefined,1366 x 768,1331 x 632
pvmr,null,null,3,167,left,varied,400,0,leftarrow,424,TRUE,1400,focus,no,652681,Chrome,88,macOS,11.2.1,undefined,undefined,1366 x 768,1331 x 632
pvmr,null,null,3,168,right,varied,1000,0,rightarrow,354,TRUE,1000,focus,no,656048,Chrome,88,macOS,11.2.1,undefined,undefined,1366 x 768,1331 x 632
pvmr,null,null,3,169,right,varied,200,0,rightarrow,640,TRUE,1500,focus,no,659901,Chrome,88,macOS,11.2.1,undefined,undefined,1366 x 768,1331 x 632
pvmr,null,null,3,170,left,varied,400,0,leftarrow,569,TRUE,1500,focus,no,663883,Chrome,88,macOS,11.2.1,undefined,undefined,1366 x 768,1331 x 632
pvmr,null,null,4,171,left,fixed-filled,600,0,leftarrow,359,TRUE,1100,focus,no,672225,Chrome,88,macOS,11.2.1,undefined,undefined,1366 x 768,1331 x 632
pvmr,null,null,4,172,right,fixed-filled,600,0,rightarrow,364,TRUE,1400,focus,no,676001,Chrome,88,macOS,11.2.1,undefined,undefined,1366 x 768,1331 x 632
pvmr,null,null,4,173,right,fixed-filled,600,0,rightarrow,355,TRUE,1100,focus,no,679170,Chrome,88,macOS,11.2.1,undefined,undefined,1366 x 768,1331 x 632
pvmr,null,null,4,174,left,fixed-filled,600,0,leftarrow,367,TRUE,1500,focus,no,683149,Chrome,88,macOS,11.2.1,undefined,undefined,1366 x 768,1331 x 632
pvmr,null,null,4,175,left,fixed-filled,600,0,leftarrow,417,TRUE,1200,focus,no,686579,Chrome,88,macOS,11.2.1,undefined,undefined,1366 x 768,1331 x 632
pvmr,null,null,4,176,right,fixed-filled,600,0,rightarrow,357,TRUE,1400,focus,no,690347,Chrome,88,macOS,11.2.1,undefined,undefined,1366 x 768,1331 x 632
pvmr,null,null,4,177,left,fixed-filled,600,0,leftarrow,350,TRUE,1100,focus,no,693512,Chrome,88,macOS,11.2.1,undefined,undefined,1366 x 768,1331 x 632
pvmr,null,null,4,178,right,fixed-filled,600,0,rightarrow,322,TRUE,1100,focus,no,696650,Chrome,88,macOS,11.2.1,undefined,undefined,1366 x 768,1331 x 632
pvmr,null,null,4,179,right,fixed-filled,600,0,rightarrow,398,TRUE,1400,focus,no,700461,Chrome,88,macOS,11.2.1,undefined,undefined,1366 x 768,1331 x 632
pvmr,null,null,4,180,left,fixed-filled,600,0,leftarrow,371,TRUE,1400,focus,no,704242,Chrome,88,macOS,11.2.1,undefined,undefined,1366 x 768,1331 x 632
pvmr,null,null,4,181,right,fixed-filled,600,0,rightarrow,363,TRUE,1200,focus,no,707620,Chrome,88,macOS,11.2.1,undefined,undefined,1366 x 768,1331 x 632
pvmr,null,null,4,182,left,fixed-filled,600,0,leftarrow,399,TRUE,1500,focus,no,711632,Chrome,88,macOS,11.2.1,undefined,undefined,1366 x 768,1331 x 632
pvmr,null,null,4,183,left,fixed-filled,600,0,rightarrow,311,FALSE,1500,focus,no,715550,Chrome,88,macOS,11.2.1,undefined,undefined,1366 x 768,1331 x 632
pvmr,null,null,4,184,right,fixed-filled,600,0,rightarrow,359,TRUE,1400,focus,no,719322,Chrome,88,macOS,11.2.1,undefined,undefined,1366 x 768,1331 x 632
pvmr,null,null,4,185,left,fixed-filled,600,0,leftarrow,486,TRUE,1100,focus,no,722619,Chrome,88,macOS,11.2.1,undefined,undefined,1366 x 768,1331 x 632
pvmr,null,null,4,186,right,fixed-filled,600,0,rightarrow,328,TRUE,1500,focus,no,726558,Chrome,88,macOS,11.2.1,undefined,undefined,1366 x 768,1331 x 632
pvmr,null,null,4,187,left,fixed-filled,600,0,leftarrow,396,TRUE,1200,focus,no,729968,Chrome,88,macOS,11.2.1,undefined,undefined,1366 x 768,1331 x 632
pvmr,null,null,4,188,right,fixed-filled,600,0,rightarrow,364,TRUE,1400,focus,no,733744,Chrome,88,macOS,11.2.1,undefined,undefined,1366 x 768,1331 x 632
pvmr,null,null,4,189,right,fixed-filled,600,0,rightarrow,443,TRUE,1500,focus,no,737798,Chrome,88,macOS,11.2.1,undefined,undefined,1366 x 768,1331 x 632
pvmr,null,null,4,190,left,fixed-filled,600,0,leftarrow,408,TRUE,1100,focus,no,741015,Chrome,88,macOS,11.2.1,undefined,undefined,1366 x 768,1331 x 632
pvmr,null,null,4,191,right,fixed-filled,600,0,rightarrow,308,TRUE,1100,focus,no,744137,Chrome,88,macOS,11.2.1,undefined,undefined,1366 x 768,1331 x 632
pvmr,null,null,4,192,left,fixed-filled,600,0,leftarrow,425,TRUE,1200,focus,no,747574,Chrome,88,macOS,11.2.1,undefined,undefined,1366 x 768,1331 x 632
pvmr,null,null,4,193,left,fixed-filled,600,0,leftarrow,511,TRUE,1200,focus,no,751100,Chrome,88,macOS,11.2.1,undefined,undefined,1366 x 768,1331 x 632
pvmr,null,null,4,194,right,fixed-filled,600,0,rightarrow,289,TRUE,1000,focus,no,753998,Chrome,88,macOS,11.2.1,undefined,undefined,1366 x 768,1331 x 632
pvmr,null,null,4,195,right,fixed-filled,600,0,rightarrow,473,TRUE,1400,focus,no,757879,Chrome,88,macOS,11.2.1,undefined,undefined,1366 x 768,1331 x 632
pvmr,null,null,4,196,left,fixed-filled,600,0,leftarrow,454,TRUE,1200,focus,no,761349,Chrome,88,macOS,11.2.1,undefined,undefined,1366 x 768,1331 x 632
pvmr,null,null,4,197,right,fixed-filled,600,0,rightarrow,448,TRUE,1200,focus,no,764808,Chrome,88,macOS,11.2.1,undefined,undefined,1366 x 768,1331 x 632
pvmr,null,null,4,198,left,fixed-filled,600,0,leftarrow,396,TRUE,1100,focus,no,768013,Chrome,88,macOS,11.2.1,undefined,undefined,1366 x 768,1331 x 632
pvmr,null,null,4,199,right,fixed-filled,600,0,rightarrow,364,TRUE,1400,focus,no,771789,Chrome,88,macOS,11.2.1,undefined,undefined,1366 x 768,1331 x 632
pvmr,null,null,4,200,left,fixed-filled,600,0,leftarrow,685,TRUE,1200,focus,no,775489,Chrome,88,macOS,11.2.1,undefined,undefined,1366 x 768,1331 x 632
pvmr,null,null,4,201,left,fixed-filled,600,0,rightarrow,589,FALSE,1100,focus,no,778891,Chrome,88,macOS,11.2.1,undefined,undefined,1366 x 768,1331 x 632
pvmr,null,null,4,202,right,fixed-filled,600,0,rightarrow,376,TRUE,1000,focus,no,781880,Chrome,88,macOS,11.2.1,undefined,undefined,1366 x 768,1331 x 632
pvmr,null,null,4,203,right,fixed-filled,600,0,rightarrow,440,TRUE,1200,focus,no,785330,Chrome,88,macOS,11.2.1,undefined,undefined,1366 x 768,1331 x 632
pvmr,null,null,4,204,left,fixed-filled,600,0,leftarrow,396,TRUE,1300,focus,no,788938,Chrome,88,macOS,11.2.1,undefined,undefined,1366 x 768,1331 x 632
pvmr,null,null,4,205,left,fixed-filled,600,0,leftarrow,501,TRUE,1500,focus,no,793054,Chrome,88,macOS,11.2.1,undefined,undefined,1366 x 768,1331 x 632
pvmr,null,null,4,206,right,fixed-filled,600,0,rightarrow,391,TRUE,1100,focus,no,796257,Chrome,88,macOS,11.2.1,undefined,undefined,1366 x 768,1331 x 632
pvmr,null,null,4,207,right,fixed-filled,600,0,rightarrow,416,TRUE,1100,focus,no,799482,Chrome,88,macOS,11.2.1,undefined,undefined,1366 x 768,1331 x 632
pvmr,null,null,4,208,left,fixed-filled,600,0,leftarrow,362,TRUE,1000,focus,no,802456,Chrome,88,macOS,11.2.1,undefined,undefined,1366 x 768,1331 x 632
pvmr,null,null,4,209,left,fixed-filled,600,0,leftarrow,476,TRUE,1100,focus,no,805743,Chrome,88,macOS,11.2.1,undefined,undefined,1366 x 768,1331 x 632
pvmr,null,null,4,210,right,fixed-filled,600,0,rightarrow,335,TRUE,1300,focus,no,809289,Chrome,88,macOS,11.2.1,undefined,undefined,1366 x 768,1331 x 632
pvmr,null,null,4,211,right,fixed-filled,600,0,rightarrow,464,TRUE,1500,focus,no,813368,Chrome,88,macOS,11.2.1,undefined,undefined,1366 x 768,1331 x 632
pvmr,null,null,4,212,left,fixed-filled,600,0,leftarrow,437,TRUE,1300,focus,no,817024,Chrome,88,macOS,11.2.1,undefined,undefined,1366 x 768,1331 x 632
pvmr,null,null,4,213,left,fixed-filled,600,0,leftarrow,437,TRUE,1100,focus,no,820274,Chrome,88,macOS,11.2.1,undefined,undefined,1366 x 768,1331 x 632
pvmr,null,null,4,214,right,fixed-filled,600,0,rightarrow,537,TRUE,1000,focus,no,823423,Chrome,88,macOS,11.2.1,undefined,undefined,1366 x 768,1331 x 632
pvmr,null,null,4,215,left,fixed-filled,600,0,leftarrow,356,TRUE,1100,focus,no,826589,Chrome,88,macOS,11.2.1,undefined,undefined,1366 x 768,1331 x 632
pvmr,null,null,4,216,right,fixed-filled,600,0,rightarrow,449,TRUE,1200,focus,no,830052,Chrome,88,macOS,11.2.1,undefined,undefined,1366 x 768,1331 x 632
pvmr,null,null,4,217,right,fixed-filled,600,0,rightarrow,429,TRUE,1000,focus,no,833090,Chrome,88,macOS,11.2.1,undefined,undefined,1366 x 768,1331 x 632
pvmr,null,null,4,218,left,fixed-filled,600,0,leftarrow,337,TRUE,1100,focus,no,836241,Chrome,88,macOS,11.2.1,undefined,undefined,1366 x 768,1331 x 632
pvmr,null,null,4,219,right,fixed-filled,600,0,rightarrow,469,TRUE,1500,focus,no,840323,Chrome,88,macOS,11.2.1,undefined,undefined,1366 x 768,1331 x 632
pvmr,null,null,4,220,left,fixed-filled,600,0,leftarrow,282,TRUE,1200,focus,no,843619,Chrome,88,macOS,11.2.1,undefined,undefined,1366 x 768,1331 x 632
pvmr,null,null,5,221,right,varied,1000,0,undefined,-1000,FALSE,1200,focus,no,862891,Chrome,88,macOS,11.2.1,undefined,undefined,1366 x 768,1331 x 632
pvmr,null,null,5,222,left,varied,1000,0,leftarrow,357,TRUE,1300,focus,no,866858,Chrome,88,macOS,11.2.1,undefined,undefined,1366 x 768,1331 x 632
pvmr,null,null,5,223,left,varied,600,0,leftarrow,464,TRUE,1000,focus,no,869935,Chrome,88,macOS,11.2.1,undefined,undefined,1366 x 768,1331 x 632
pvmr,null,null,5,224,right,varied,200,0,rightarrow,427,TRUE,1500,focus,no,873574,Chrome,88,macOS,11.2.1,undefined,undefined,1366 x 768,1331 x 632
pvmr,null,null,5,225,left,varied,1000,0,leftarrow,442,TRUE,1000,focus,no,877030,Chrome,88,macOS,11.2.1,undefined,undefined,1366 x 768,1331 x 632
pvmr,null,null,5,226,right,varied,600,0,rightarrow,308,TRUE,1200,focus,no,880352,Chrome,88,macOS,11.2.1,undefined,undefined,1366 x 768,1331 x 632
pvmr,null,null,5,227,right,varied,1000,0,rightarrow,470,TRUE,1000,focus,no,883833,Chrome,88,macOS,11.2.1,undefined,undefined,1366 x 768,1331 x 632
pvmr,null,null,5,228,left,varied,200,0,leftarrow,863,TRUE,1300,focus,no,887506,Chrome,88,macOS,11.2.1,undefined,undefined,1366 x 768,1331 x 632
pvmr,null,null,5,229,right,varied,600,0,rightarrow,419,TRUE,1000,focus,no,890537,Chrome,88,macOS,11.2.1,undefined,undefined,1366 x 768,1331 x 632
pvmr,null,null,5,230,left,varied,400,0,leftarrow,323,TRUE,1100,focus,no,893471,Chrome,88,macOS,11.2.1,undefined,undefined,1366 x 768,1331 x 632
pvmr,null,null,5,231,left,varied,200,0,rightarrow,407,FALSE,1100,focus,no,896292,Chrome,88,macOS,11.2.1,undefined,undefined,1366 x 768,1331 x 632
pvmr,null,null,5,232,right,varied,800,0,rightarrow,358,TRUE,1000,focus,no,899459,Chrome,88,macOS,11.2.1,undefined,undefined,1366 x 768,1331 x 632
pvmr,null,null,5,233,left,varied,200,0,leftarrow,496,TRUE,1000,focus,no,902164,Chrome,88,macOS,11.2.1,undefined,undefined,1366 x 768,1331 x 632
pvmr,null,null,5,234,right,varied,800,0,rightarrow,416,TRUE,1000,focus,no,905389,Chrome,88,macOS,11.2.1,undefined,undefined,1366 x 768,1331 x 632
pvmr,null,null,5,235,right,varied,1000,0,rightarrow,425,TRUE,1500,focus,no,909879,Chrome,88,macOS,11.2.1,undefined,undefined,1366 x 768,1331 x 632
pvmr,null,null,5,236,left,varied,800,0,leftarrow,404,TRUE,1300,focus,no,913698,Chrome,88,macOS,11.2.1,undefined,undefined,1366 x 768,1331 x 632
pvmr,null,null,5,237,right,varied,800,0,rightarrow,409,TRUE,1100,focus,no,917121,Chrome,88,macOS,11.2.1,undefined,undefined,1366 x 768,1331 x 632
pvmr,null,null,5,238,left,varied,600,0,leftarrow,408,TRUE,1200,focus,no,920544,Chrome,88,macOS,11.2.1,undefined,undefined,1366 x 768,1331 x 632
pvmr,null,null,5,239,right,varied,600,0,rightarrow,581,TRUE,1300,focus,no,924339,Chrome,88,macOS,11.2.1,undefined,undefined,1366 x 768,1331 x 632
pvmr,null,null,5,240,left,varied,800,0,leftarrow,501,TRUE,1400,focus,no,928449,Chrome,88,macOS,11.2.1,undefined,undefined,1366 x 768,1331 x 632
pvmr,null,null,5,241,right,varied,800,0,rightarrow,530,TRUE,1100,focus,no,931996,Chrome,88,macOS,11.2.1,undefined,undefined,1366 x 768,1331 x 632
pvmr,null,null,5,242,left,varied,1000,0,leftarrow,526,TRUE,1000,focus,no,935534,Chrome,88,macOS,11.2.1,undefined,undefined,1366 x 768,1331 x 632
pvmr,null,null,5,243,left,varied,400,0,leftarrow,908,TRUE,1000,focus,no,938856,Chrome,88,macOS,11.2.1,undefined,undefined,1366 x 768,1331 x 632
pvmr,null,null,5,244,right,varied,200,0,rightarrow,513,TRUE,1000,focus,no,941579,Chrome,88,macOS,11.2.1,undefined,undefined,1366 x 768,1331 x 632
pvmr,null,null,5,245,right,varied,600,0,rightarrow,891,TRUE,1500,focus,no,946084,Chrome,88,macOS,11.2.1,undefined,undefined,1366 x 768,1331 x 632
pvmr,null,null,5,246,left,varied,800,0,leftarrow,449,TRUE,1000,focus,no,949345,Chrome,88,macOS,11.2.1,undefined,undefined,1366 x 768,1331 x 632
pvmr,null,null,5,247,right,varied,400,0,rightarrow,873,TRUE,1100,focus,no,952834,Chrome,88,macOS,11.2.1,undefined,undefined,1366 x 768,1331 x 632
pvmr,null,null,5,248,left,varied,800,0,leftarrow,470,TRUE,1000,focus,no,956116,Chrome,88,macOS,11.2.1,undefined,undefined,1366 x 768,1331 x 632
pvmr,null,null,5,249,left,varied,400,0,leftarrow,477,TRUE,1400,focus,no,959804,Chrome,88,macOS,11.2.1,undefined,undefined,1366 x 768,1331 x 632
pvmr,null,null,5,250,right,varied,1000,0,rightarrow,436,TRUE,1000,focus,no,963251,Chrome,88,macOS,11.2.1,undefined,undefined,1366 x 768,1331 x 632
pvmr,null,null,5,251,left,varied,600,0,leftarrow,401,TRUE,1500,focus,no,967272,Chrome,88,macOS,11.2.1,undefined,undefined,1366 x 768,1331 x 632
pvmr,null,null,5,252,right,varied,400,0,rightarrow,462,TRUE,1000,focus,no,970145,Chrome,88,macOS,11.2.1,undefined,undefined,1366 x 768,1331 x 632
pvmr,null,null,5,253,left,varied,200,0,leftarrow,790,TRUE,1500,focus,no,974151,Chrome,88,macOS,11.2.1,undefined,undefined,1366 x 768,1331 x 632
pvmr,null,null,5,254,right,varied,400,0,undefined,-400,FALSE,1400,focus,no,978370,Chrome,88,macOS,11.2.1,undefined,undefined,1366 x 768,1331 x 632
pvmr,null,null,5,255,right,varied,800,0,rightarrow,405,TRUE,1100,focus,no,981785,Chrome,88,macOS,11.2.1,undefined,undefined,1366 x 768,1331 x 632
pvmr,null,null,5,256,left,varied,400,0,leftarrow,591,TRUE,1000,focus,no,984788,Chrome,88,macOS,11.2.1,undefined,undefined,1366 x 768,1331 x 632
pvmr,null,null,5,257,right,varied,800,0,rightarrow,282,TRUE,1100,focus,no,988080,Chrome,88,macOS,11.2.1,undefined,undefined,1366 x 768,1331 x 632
pvmr,null,null,5,258,left,varied,600,0,leftarrow,503,TRUE,1300,focus,no,991794,Chrome,88,macOS,11.2.1,undefined,undefined,1366 x 768,1331 x 632
pvmr,null,null,5,259,right,varied,600,0,rightarrow,563,TRUE,1400,focus,no,995774,Chrome,88,macOS,11.2.1,undefined,undefined,1366 x 768,1331 x 632
pvmr,null,null,5,260,left,varied,200,0,leftarrow,911,TRUE,1500,focus,no,999894,Chrome,88,macOS,11.2.1,undefined,undefined,1366 x 768,1331 x 632
pvmr,null,null,5,261,right,varied,800,0,rightarrow,519,TRUE,1300,focus,no,1003827,Chrome,88,macOS,11.2.1,undefined,undefined,1366 x 768,1331 x 632
pvmr,null,null,5,262,left,varied,1000,0,leftarrow,505,TRUE,1500,focus,no,1008347,Chrome,88,macOS,11.2.1,undefined,undefined,1366 x 768,1331 x 632
pvmr,null,null,5,263,left,varied,400,0,leftarrow,535,TRUE,1500,focus,no,1012292,Chrome,88,macOS,11.2.1,undefined,undefined,1366 x 768,1331 x 632
pvmr,null,null,5,264,right,varied,1000,0,rightarrow,386,TRUE,1000,focus,no,1015691,Chrome,88,macOS,11.2.1,undefined,undefined,1366 x 768,1331 x 632
pvmr,null,null,5,265,right,varied,800,0,rightarrow,442,TRUE,1000,focus,no,1018944,Chrome,88,macOS,11.2.1,undefined,undefined,1366 x 768,1331 x 632
pvmr,null,null,5,266,left,varied,200,0,leftarrow,697,TRUE,1200,focus,no,1022253,Chrome,88,macOS,11.2.1,undefined,undefined,1366 x 768,1331 x 632
pvmr,null,null,5,267,left,varied,400,0,leftarrow,586,TRUE,1000,focus,no,1025251,Chrome,88,macOS,11.2.1,undefined,undefined,1366 x 768,1331 x 632
pvmr,null,null,5,268,right,varied,400,0,undefined,-400,FALSE,1100,focus,no,1028867,Chrome,88,macOS,11.2.1,undefined,undefined,1366 x 768,1331 x 632
pvmr,null,null,5,269,left,varied,400,0,leftarrow,428,TRUE,1100,focus,no,1033016,Chrome,88,macOS,11.2.1,undefined,undefined,1366 x 768,1331 x 632
pvmr,null,null,5,270,right,varied,200,0,rightarrow,594,TRUE,1100,focus,no,1036025,Chrome,88,macOS,11.2.1,undefined,undefined,1366 x 768,1331 x 632
pvmr,null,null,6,271,right,fixed-filled,600,0,rightarrow,387,TRUE,1500,focus,no,1045128,Chrome,88,macOS,11.2.1,undefined,undefined,1366 x 768,1331 x 632
pvmr,null,null,6,272,left,fixed-filled,600,0,leftarrow,402,TRUE,1500,focus,no,1049142,Chrome,88,macOS,11.2.1,undefined,undefined,1366 x 768,1331 x 632
pvmr,null,null,6,273,left,fixed-filled,600,0,leftarrow,718,TRUE,1300,focus,no,1053070,Chrome,88,macOS,11.2.1,undefined,undefined,1366 x 768,1331 x 632
pvmr,null,null,6,274,right,fixed-filled,600,0,rightarrow,621,TRUE,1200,focus,no,1056703,Chrome,88,macOS,11.2.1,undefined,undefined,1366 x 768,1331 x 632
pvmr,null,null,6,275,left,fixed-filled,600,0,leftarrow,411,TRUE,1500,focus,no,1060729,Chrome,88,macOS,11.2.1,undefined,undefined,1366 x 768,1331 x 632
pvmr,null,null,6,276,right,fixed-filled,600,0,rightarrow,448,TRUE,1500,focus,no,1064795,Chrome,88,macOS,11.2.1,undefined,undefined,1366 x 768,1331 x 632
pvmr,null,null,6,277,left,fixed-filled,600,0,leftarrow,377,TRUE,1400,focus,no,1068588,Chrome,88,macOS,11.2.1,undefined,undefined,1366 x 768,1331 x 632
pvmr,null,null,6,278,right,fixed-filled,600,0,rightarrow,421,TRUE,1500,focus,no,1072620,Chrome,88,macOS,11.2.1,undefined,undefined,1366 x 768,1331 x 632
pvmr,null,null,6,279,right,fixed-filled,600,0,rightarrow,463,TRUE,1200,focus,no,1076095,Chrome,88,macOS,11.2.1,undefined,undefined,1366 x 768,1331 x 632
pvmr,null,null,6,280,left,fixed-filled,600,0,leftarrow,446,TRUE,1400,focus,no,1079953,Chrome,88,macOS,11.2.1,undefined,undefined,1366 x 768,1331 x 632
pvmr,null,null,6,281,left,fixed-filled,600,0,leftarrow,472,TRUE,1200,focus,no,1083442,Chrome,88,macOS,11.2.1,undefined,undefined,1366 x 768,1331 x 632
pvmr,null,null,6,282,right,fixed-filled,600,0,rightarrow,662,TRUE,1200,focus,no,1087118,Chrome,88,macOS,11.2.1,undefined,undefined,1366 x 768,1331 x 632
pvmr,null,null,6,283,left,fixed-filled,600,0,undefined,-600,FALSE,1300,focus,no,1091337,Chrome,88,macOS,11.2.1,undefined,undefined,1366 x 768,1331 x 632
pvmr,null,null,6,284,right,fixed-filled,600,0,rightarrow,724,TRUE,1100,focus,no,1095980,Chrome,88,macOS,11.2.1,undefined,undefined,1366 x 768,1331 x 632
pvmr,null,null,6,285,right,fixed-filled,600,0,rightarrow,449,TRUE,1500,focus,no,1100040,Chrome,88,macOS,11.2.1,undefined,undefined,1366 x 768,1331 x 632
pvmr,null,null,6,286,left,fixed-filled,600,0,leftarrow,704,TRUE,1400,focus,no,1104157,Chrome,88,macOS,11.2.1,undefined,undefined,1366 x 768,1331 x 632
pvmr,null,null,6,287,left,fixed-filled,600,0,leftarrow,627,TRUE,1200,focus,no,1107797,Chrome,88,macOS,11.2.1,undefined,undefined,1366 x 768,1331 x 632
pvmr,null,null,6,288,right,fixed-filled,600,0,rightarrow,636,TRUE,1400,focus,no,1111851,Chrome,88,macOS,11.2.1,undefined,undefined,1366 x 768,1331 x 632
pvmr,null,null,6,289,left,fixed-filled,600,0,undefined,-600,FALSE,1400,focus,no,1116265,Chrome,88,macOS,11.2.1,undefined,undefined,1366 x 768,1331 x 632
pvmr,null,null,6,290,right,fixed-filled,600,0,rightarrow,365,TRUE,1500,focus,no,1121745,Chrome,88,macOS,11.2.1,undefined,undefined,1366 x 768,1331 x 632
pvmr,null,null,6,291,right,fixed-filled,600,0,rightarrow,537,TRUE,1300,focus,no,1125492,Chrome,88,macOS,11.2.1,undefined,undefined,1366 x 768,1331 x 632
pvmr,null,null,6,292,left,fixed-filled,600,0,leftarrow,381,TRUE,1200,focus,no,1128886,Chrome,88,macOS,11.2.1,undefined,undefined,1366 x 768,1331 x 632
pvmr,null,null,6,293,left,fixed-filled,600,0,leftarrow,790,TRUE,1300,focus,no,1132886,Chrome,88,macOS,11.2.1,undefined,undefined,1366 x 768,1331 x 632
pvmr,null,null,6,294,right,fixed-filled,600,0,rightarrow,434,TRUE,1500,focus,no,1136935,Chrome,88,macOS,11.2.1,undefined,undefined,1366 x 768,1331 x 632
pvmr,null,null,6,295,right,fixed-filled,600,0,rightarrow,435,TRUE,1100,focus,no,1140182,Chrome,88,macOS,11.2.1,undefined,undefined,1366 x 768,1331 x 632
pvmr,null,null,6,296,left,fixed-filled,600,0,undefined,-600,FALSE,1200,focus,no,1144193,Chrome,88,macOS,11.2.1,undefined,undefined,1366 x 768,1331 x 632
pvmr,null,null,6,297,right,fixed-filled,600,0,rightarrow,473,TRUE,1500,focus,no,1149791,Chrome,88,macOS,11.2.1,undefined,undefined,1366 x 768,1331 x 632
pvmr,null,null,6,298,left,fixed-filled,600,0,leftarrow,395,TRUE,1300,focus,no,1153396,Chrome,88,macOS,11.2.1,undefined,undefined,1366 x 768,1331 x 632
pvmr,null,null,6,299,left,fixed-filled,600,0,leftarrow,406,TRUE,1000,focus,no,1156409,Chrome,88,macOS,11.2.1,undefined,undefined,1366 x 768,1331 x 632
pvmr,null,null,6,300,right,fixed-filled,600,0,rightarrow,564,TRUE,1500,focus,no,1160590,Chrome,88,macOS,11.2.1,undefined,undefined,1366 x 768,1331 x 632
pvmr,null,null,6,301,right,fixed-filled,600,0,rightarrow,425,TRUE,1500,focus,no,1164626,Chrome,88,macOS,11.2.1,undefined,undefined,1366 x 768,1331 x 632
pvmr,null,null,6,302,left,fixed-filled,600,0,leftarrow,556,TRUE,1000,focus,no,1167796,Chrome,88,macOS,11.2.1,undefined,undefined,1366 x 768,1331 x 632
pvmr,null,null,6,303,left,fixed-filled,600,0,leftarrow,491,TRUE,1100,focus,no,1171098,Chrome,88,macOS,11.2.1,undefined,undefined,1366 x 768,1331 x 632
pvmr,null,null,6,304,right,fixed-filled,600,0,rightarrow,422,TRUE,1300,focus,no,1174738,Chrome,88,macOS,11.2.1,undefined,undefined,1366 x 768,1331 x 632
pvmr,null,null,6,305,left,fixed-filled,600,0,leftarrow,610,TRUE,1000,focus,no,1177958,Chrome,88,macOS,11.2.1,undefined,undefined,1366 x 768,1331 x 632
pvmr,null,null,6,306,right,fixed-filled,600,0,rightarrow,394,TRUE,1200,focus,no,1181369,Chrome,88,macOS,11.2.1,undefined,undefined,1366 x 768,1331 x 632
pvmr,null,null,6,307,left,fixed-filled,600,0,leftarrow,372,TRUE,1100,focus,no,1184555,Chrome,88,macOS,11.2.1,undefined,undefined,1366 x 768,1331 x 632
pvmr,null,null,6,308,right,fixed-filled,600,0,rightarrow,580,TRUE,1100,focus,no,1187947,Chrome,88,macOS,11.2.1,undefined,undefined,1366 x 768,1331 x 632
pvmr,null,null,6,309,left,fixed-filled,600,0,leftarrow,399,TRUE,1500,focus,no,1191955,Chrome,88,macOS,11.2.1,undefined,undefined,1366 x 768,1331 x 632
pvmr,null,null,6,310,right,fixed-filled,600,0,rightarrow,405,TRUE,1400,focus,no,1195772,Chrome,88,macOS,11.2.1,undefined,undefined,1366 x 768,1331 x 632
pvmr,null,null,6,311,right,fixed-filled,600,0,rightarrow,460,TRUE,1000,focus,no,1198842,Chrome,88,macOS,11.2.1,undefined,undefined,1366 x 768,1331 x 632
pvmr,null,null,6,312,left,fixed-filled,600,0,leftarrow,398,TRUE,1300,focus,no,1202451,Chrome,88,macOS,11.2.1,undefined,undefined,1366 x 768,1331 x 632
pvmr,null,null,6,313,right,fixed-filled,600,0,rightarrow,427,TRUE,1500,focus,no,1206491,Chrome,88,macOS,11.2.1,undefined,undefined,1366 x 768,1331 x 632
pvmr,null,null,6,314,left,fixed-filled,600,0,leftarrow,539,TRUE,1500,focus,no,1210643,Chrome,88,macOS,11.2.1,undefined,undefined,1366 x 768,1331 x 632
pvmr,null,null,6,315,left,fixed-filled,600,0,leftarrow,436,TRUE,1100,focus,no,1213889,Chrome,88,macOS,11.2.1,undefined,undefined,1366 x 768,1331 x 632
pvmr,null,null,6,316,right,fixed-filled,600,0,rightarrow,524,TRUE,1000,focus,no,1217024,Chrome,88,macOS,11.2.1,undefined,undefined,1366 x 768,1331 x 632
pvmr,null,null,6,317,right,fixed-filled,600,0,rightarrow,463,TRUE,1400,focus,no,1220900,Chrome,88,macOS,11.2.1,undefined,undefined,1366 x 768,1331 x 632
pvmr,null,null,6,318,left,fixed-filled,600,0,leftarrow,355,TRUE,1200,focus,no,1224267,Chrome,88,macOS,11.2.1,undefined,undefined,1366 x 768,1331 x 632
pvmr,null,null,6,319,right,fixed-filled,600,0,rightarrow,572,TRUE,1000,focus,no,1227455,Chrome,88,macOS,11.2.1,undefined,undefined,1366 x 768,1331 x 632
pvmr,null,null,6,320,left,fixed-filled,600,0,leftarrow,372,TRUE,1400,focus,no,1231241,Chrome,88,macOS,11.2.1,undefined,undefined,1366 x 768,1331 x 632
