subjectID,age,gender,block_i,trial_i,go_cue,block,fixation_duration,blank_interval,response,rt,correct,inter_trial_interval,focus,Fullscreen,time_elapsed,browser_name,browser_version,os_name,os_version,tablet,mobile,screen_resolution,window_resolution
5m35,null,null,0,1,left,practice,600,0,leftarrow,675,true,1300,focus,yes,161248,Chrome,89.0,macOS,10.14.6,undefined,undefined,1440 x 900,1440 x 900
5m35,null,null,0,2,right,practice,600,0,rightarrow,455,true,1300,focus,yes,165670,Chrome,89.0,macOS,10.14.6,undefined,undefined,1440 x 900,1440 x 900
5m35,null,null,0,3,right,practice,600,0,rightarrow,476,true,1400,focus,yes,170316,Chrome,89.0,macOS,10.14.6,undefined,undefined,1440 x 900,1440 x 900
5m35,null,null,0,4,left,practice,600,0,leftarrow,430,true,1300,focus,yes,174713,Chrome,89.0,macOS,10.14.6,undefined,undefined,1440 x 900,1440 x 900
5m35,null,null,0,5,right,practice,600,0,rightarrow,438,true,1400,focus,yes,179320,Chrome,89.0,macOS,10.14.6,undefined,undefined,1440 x 900,1440 x 900
5m35,null,null,0,6,left,practice,600,0,leftarrow,412,true,1200,focus,yes,183501,Chrome,89.0,macOS,10.14.6,undefined,undefined,1440 x 900,1440 x 900
5m35,null,null,0,7,left,practice,600,0,leftarrow,467,true,1500,focus,yes,188337,Chrome,89.0,macOS,10.14.6,undefined,undefined,1440 x 900,1440 x 900
5m35,null,null,0,8,right,practice,600,0,rightarrow,577,true,1300,focus,yes,192883,Chrome,89.0,macOS,10.14.6,undefined,undefined,1440 x 900,1440 x 900
5m35,null,null,0,9,right,practice,600,0,rightarrow,583,true,1500,focus,yes,197835,Chrome,89.0,macOS,10.14.6,undefined,undefined,1440 x 900,1440 x 900
5m35,null,null,0,10,left,practice,600,0,leftarrow,407,true,1100,focus,yes,201809,Chrome,89.0,macOS,10.14.6,undefined,undefined,1440 x 900,1440 x 900
5m35,null,null,0,11,left,practice,600,0,leftarrow,518,true,1200,focus,yes,206099,Chrome,89.0,macOS,10.14.6,undefined,undefined,1440 x 900,1440 x 900
5m35,null,null,0,12,right,practice,600,0,rightarrow,681,true,1200,focus,yes,210543,Chrome,89.0,macOS,10.14.6,undefined,undefined,1440 x 900,1440 x 900
5m35,null,null,0,13,left,practice,600,0,leftarrow,360,true,1400,focus,yes,215069,Chrome,89.0,macOS,10.14.6,undefined,undefined,1440 x 900,1440 x 900
5m35,null,null,0,14,right,practice,600,0,rightarrow,406,true,1000,focus,yes,218845,Chrome,89.0,macOS,10.14.6,undefined,undefined,1440 x 900,1440 x 900
5m35,null,null,0,15,left,practice,600,0,leftarrow,385,true,1400,focus,yes,223397,Chrome,89.0,macOS,10.14.6,undefined,undefined,1440 x 900,1440 x 900
5m35,null,null,0,16,right,practice,600,0,rightarrow,431,true,1500,focus,yes,228199,Chrome,89.0,macOS,10.14.6,undefined,undefined,1440 x 900,1440 x 900
5m35,null,null,0,17,left,practice,600,0,leftarrow,307,true,1500,focus,yes,232873,Chrome,89.0,macOS,10.14.6,undefined,undefined,1440 x 900,1440 x 900
5m35,null,null,0,18,right,practice,600,0,rightarrow,359,true,1500,focus,yes,237598,Chrome,89.0,macOS,10.14.6,undefined,undefined,1440 x 900,1440 x 900
5m35,null,null,0,19,left,practice,600,0,leftarrow,365,true,1200,focus,yes,241726,Chrome,89.0,macOS,10.14.6,undefined,undefined,1440 x 900,1440 x 900
5m35,null,null,0,20,right,practice,600,0,rightarrow,526,true,1500,focus,yes,246622,Chrome,89.0,macOS,10.14.6,undefined,undefined,1440 x 900,1440 x 900
5m35,null,null,1,21,left,varied,200,0,leftarrow,408,true,1400,focus,yes,279141,Chrome,89.0,macOS,10.14.6,undefined,undefined,1440 x 900,1440 x 900
5m35,null,null,1,22,right,varied,1000,0,rightarrow,453,true,1000,focus,yes,282609,Chrome,89.0,macOS,10.14.6,undefined,undefined,1440 x 900,1440 x 900
5m35,null,null,1,23,left,varied,800,0,leftarrow,441,true,1300,focus,yes,286466,Chrome,89.0,macOS,10.14.6,undefined,undefined,1440 x 900,1440 x 900
5m35,null,null,1,24,right,varied,400,0,rightarrow,464,true,1200,focus,yes,289745,Chrome,89.0,macOS,10.14.6,undefined,undefined,1440 x 900,1440 x 900
5m35,null,null,1,25,right,varied,400,0,rightarrow,417,true,1300,focus,yes,293176,Chrome,89.0,macOS,10.14.6,undefined,undefined,1440 x 900,1440 x 900
5m35,null,null,1,26,left,varied,600,0,leftarrow,417,true,1300,focus,yes,296806,Chrome,89.0,macOS,10.14.6,undefined,undefined,1440 x 900,1440 x 900
5m35,null,null,1,27,left,varied,1000,0,leftarrow,395,true,1200,focus,yes,300610,Chrome,89.0,macOS,10.14.6,undefined,undefined,1440 x 900,1440 x 900
5m35,null,null,1,28,right,varied,400,0,rightarrow,457,true,1000,focus,yes,303478,Chrome,89.0,macOS,10.14.6,undefined,undefined,1440 x 900,1440 x 900
5m35,null,null,1,29,left,varied,200,0,leftarrow,464,true,1000,focus,yes,306152,Chrome,89.0,macOS,10.14.6,undefined,undefined,1440 x 900,1440 x 900
5m35,null,null,1,30,right,varied,200,0,rightarrow,592,true,1400,focus,yes,309753,Chrome,89.0,macOS,10.14.6,undefined,undefined,1440 x 900,1440 x 900
5m35,null,null,1,31,left,varied,1000,0,leftarrow,441,true,1000,focus,yes,313210,Chrome,89.0,macOS,10.14.6,undefined,undefined,1440 x 900,1440 x 900
5m35,null,null,1,32,right,varied,600,0,rightarrow,469,true,1400,focus,yes,317095,Chrome,89.0,macOS,10.14.6,undefined,undefined,1440 x 900,1440 x 900
5m35,null,null,1,33,right,varied,200,0,rightarrow,584,true,1000,focus,yes,319891,Chrome,89.0,macOS,10.14.6,undefined,undefined,1440 x 900,1440 x 900
5m35,null,null,1,34,left,varied,1000,0,leftarrow,455,true,1100,focus,yes,323559,Chrome,89.0,macOS,10.14.6,undefined,undefined,1440 x 900,1440 x 900
5m35,null,null,1,35,right,varied,200,0,rightarrow,358,true,1300,focus,yes,326728,Chrome,89.0,macOS,10.14.6,undefined,undefined,1440 x 900,1440 x 900
5m35,null,null,1,36,left,varied,800,0,leftarrow,281,true,1400,focus,yes,330622,Chrome,89.0,macOS,10.14.6,undefined,undefined,1440 x 900,1440 x 900
5m35,null,null,1,37,left,varied,800,0,rightarrow,303,false,1100,focus,yes,333935,Chrome,89.0,macOS,10.14.6,undefined,undefined,1440 x 900,1440 x 900
5m35,null,null,1,38,right,varied,600,0,rightarrow,527,true,1000,focus,yes,337075,Chrome,89.0,macOS,10.14.6,undefined,undefined,1440 x 900,1440 x 900
5m35,null,null,1,39,right,varied,800,0,rightarrow,433,true,1100,focus,yes,340525,Chrome,89.0,macOS,10.14.6,undefined,undefined,1440 x 900,1440 x 900
5m35,null,null,1,40,left,varied,400,0,leftarrow,405,true,1400,focus,yes,344146,Chrome,89.0,macOS,10.14.6,undefined,undefined,1440 x 900,1440 x 900
5m35,null,null,1,41,left,varied,200,0,leftarrow,448,true,1500,focus,yes,347807,Chrome,89.0,macOS,10.14.6,undefined,undefined,1440 x 900,1440 x 900
5m35,null,null,1,42,right,varied,200,0,rightarrow,396,true,1200,focus,yes,350818,Chrome,89.0,macOS,10.14.6,undefined,undefined,1440 x 900,1440 x 900
5m35,null,null,1,43,right,varied,1000,0,rightarrow,486,true,1100,focus,yes,354518,Chrome,89.0,macOS,10.14.6,undefined,undefined,1440 x 900,1440 x 900
5m35,null,null,1,44,left,varied,600,0,leftarrow,400,true,1100,focus,yes,357728,Chrome,89.0,macOS,10.14.6,undefined,undefined,1440 x 900,1440 x 900
5m35,null,null,1,45,right,varied,200,0,rightarrow,440,true,1500,focus,yes,361378,Chrome,89.0,macOS,10.14.6,undefined,undefined,1440 x 900,1440 x 900
5m35,null,null,1,46,left,varied,200,0,leftarrow,389,true,1100,focus,yes,364177,Chrome,89.0,macOS,10.14.6,undefined,undefined,1440 x 900,1440 x 900
5m35,null,null,1,47,right,varied,800,0,rightarrow,434,true,1300,focus,yes,368026,Chrome,89.0,macOS,10.14.6,undefined,undefined,1440 x 900,1440 x 900
5m35,null,null,1,48,left,varied,800,0,leftarrow,411,true,1100,focus,yes,371446,Chrome,89.0,macOS,10.14.6,undefined,undefined,1440 x 900,1440 x 900
5m35,null,null,1,49,left,varied,800,0,leftarrow,396,true,1200,focus,yes,375057,Chrome,89.0,macOS,10.14.6,undefined,undefined,1440 x 900,1440 x 900
5m35,null,null,1,50,right,varied,400,0,rightarrow,594,true,1200,focus,yes,378467,Chrome,89.0,macOS,10.14.6,undefined,undefined,1440 x 900,1440 x 900
5m35,null,null,1,51,right,varied,200,0,rightarrow,609,true,1200,focus,yes,381690,Chrome,89.0,macOS,10.14.6,undefined,undefined,1440 x 900,1440 x 900
5m35,null,null,1,52,left,varied,200,0,leftarrow,664,true,1500,focus,yes,385565,Chrome,89.0,macOS,10.14.6,undefined,undefined,1440 x 900,1440 x 900
5m35,null,null,1,53,right,varied,600,0,rightarrow,535,true,1400,focus,yes,389511,Chrome,89.0,macOS,10.14.6,undefined,undefined,1440 x 900,1440 x 900
5m35,null,null,1,54,left,varied,400,0,leftarrow,699,true,1400,focus,yes,393425,Chrome,89.0,macOS,10.14.6,undefined,undefined,1440 x 900,1440 x 900
5m35,null,null,1,55,left,varied,800,0,leftarrow,376,true,1200,focus,yes,397013,Chrome,89.0,macOS,10.14.6,undefined,undefined,1440 x 900,1440 x 900
5m35,null,null,1,56,right,varied,200,0,rightarrow,514,true,1300,focus,yes,400343,Chrome,89.0,macOS,10.14.6,undefined,undefined,1440 x 900,1440 x 900
5m35,null,null,1,57,left,varied,600,0,leftarrow,484,true,1300,focus,yes,404036,Chrome,89.0,macOS,10.14.6,undefined,undefined,1440 x 900,1440 x 900
5m35,null,null,1,58,right,varied,400,0,rightarrow,552,true,1100,focus,yes,407203,Chrome,89.0,macOS,10.14.6,undefined,undefined,1440 x 900,1440 x 900
5m35,null,null,1,59,right,varied,800,0,rightarrow,499,true,1100,focus,yes,410712,Chrome,89.0,macOS,10.14.6,undefined,undefined,1440 x 900,1440 x 900
5m35,null,null,1,60,left,varied,1000,0,leftarrow,568,true,1300,focus,yes,414896,Chrome,89.0,macOS,10.14.6,undefined,undefined,1440 x 900,1440 x 900
5m35,null,null,1,61,right,varied,400,0,rightarrow,487,true,1100,focus,yes,417994,Chrome,89.0,macOS,10.14.6,undefined,undefined,1440 x 900,1440 x 900
5m35,null,null,1,62,left,varied,600,0,leftarrow,468,true,1200,focus,yes,421471,Chrome,89.0,macOS,10.14.6,undefined,undefined,1440 x 900,1440 x 900
5m35,null,null,1,63,left,varied,400,0,leftarrow,435,true,1400,focus,yes,425116,Chrome,89.0,macOS,10.14.6,undefined,undefined,1440 x 900,1440 x 900
5m35,null,null,1,64,right,varied,400,0,rightarrow,496,true,1000,focus,yes,428023,Chrome,89.0,macOS,10.14.6,undefined,undefined,1440 x 900,1440 x 900
5m35,null,null,1,65,right,varied,200,0,rightarrow,460,true,1200,focus,yes,431098,Chrome,89.0,macOS,10.14.6,undefined,undefined,1440 x 900,1440 x 900
5m35,null,null,1,66,left,varied,600,0,leftarrow,433,true,1000,focus,yes,434144,Chrome,89.0,macOS,10.14.6,undefined,undefined,1440 x 900,1440 x 900
5m35,null,null,1,67,left,varied,800,0,leftarrow,491,true,1300,focus,yes,438048,Chrome,89.0,macOS,10.14.6,undefined,undefined,1440 x 900,1440 x 900
5m35,null,null,1,68,right,varied,800,0,rightarrow,551,true,1500,focus,yes,442409,Chrome,89.0,macOS,10.14.6,undefined,undefined,1440 x 900,1440 x 900
5m35,null,null,1,69,right,varied,400,0,rightarrow,412,true,1000,focus,yes,445230,Chrome,89.0,macOS,10.14.6,undefined,undefined,1440 x 900,1440 x 900
5m35,null,null,1,70,left,varied,200,0,leftarrow,509,true,1400,focus,yes,448752,Chrome,89.0,macOS,10.14.6,undefined,undefined,1440 x 900,1440 x 900
5m35,null,null,2,71,right,varied,800,0,rightarrow,545,true,1300,focus,yes,461223,Chrome,89.0,macOS,10.14.6,undefined,undefined,1440 x 900,1440 x 900
5m35,null,null,2,72,left,varied,600,0,leftarrow,427,true,1200,focus,yes,464665,Chrome,89.0,macOS,10.14.6,undefined,undefined,1440 x 900,1440 x 900
5m35,null,null,2,73,left,varied,600,0,leftarrow,554,true,1200,focus,yes,468233,Chrome,89.0,macOS,10.14.6,undefined,undefined,1440 x 900,1440 x 900
5m35,null,null,2,74,right,varied,200,0,rightarrow,690,true,1200,focus,yes,471538,Chrome,89.0,macOS,10.14.6,undefined,undefined,1440 x 900,1440 x 900
5m35,null,null,2,75,left,varied,600,0,leftarrow,315,true,1000,focus,yes,474468,Chrome,89.0,macOS,10.14.6,undefined,undefined,1440 x 900,1440 x 900
5m35,null,null,2,76,right,varied,800,0,rightarrow,480,true,1500,focus,yes,478763,Chrome,89.0,macOS,10.14.6,undefined,undefined,1440 x 900,1440 x 900
5m35,null,null,2,77,right,varied,800,0,rightarrow,523,true,1000,focus,yes,482095,Chrome,89.0,macOS,10.14.6,undefined,undefined,1440 x 900,1440 x 900
5m35,null,null,2,78,left,varied,1000,0,leftarrow,493,true,1500,focus,yes,486601,Chrome,89.0,macOS,10.14.6,undefined,undefined,1440 x 900,1440 x 900
5m35,null,null,2,79,left,varied,400,0,leftarrow,516,true,1500,focus,yes,490531,Chrome,89.0,macOS,10.14.6,undefined,undefined,1440 x 900,1440 x 900
5m35,null,null,2,80,right,varied,400,0,rightarrow,544,true,1400,focus,yes,494285,Chrome,89.0,macOS,10.14.6,undefined,undefined,1440 x 900,1440 x 900
5m35,null,null,2,81,left,varied,200,0,leftarrow,377,true,1100,focus,yes,497072,Chrome,89.0,macOS,10.14.6,undefined,undefined,1440 x 900,1440 x 900
5m35,null,null,2,82,right,varied,1000,0,rightarrow,445,true,1100,focus,yes,500732,Chrome,89.0,macOS,10.14.6,undefined,undefined,1440 x 900,1440 x 900
5m35,null,null,2,83,right,varied,800,0,rightarrow,406,true,1100,focus,yes,504151,Chrome,89.0,macOS,10.14.6,undefined,undefined,1440 x 900,1440 x 900
5m35,null,null,2,84,left,varied,800,0,leftarrow,420,true,1400,focus,yes,508177,Chrome,89.0,macOS,10.14.6,undefined,undefined,1440 x 900,1440 x 900
5m35,null,null,2,85,left,varied,400,0,leftarrow,387,true,1100,focus,yes,511179,Chrome,89.0,macOS,10.14.6,undefined,undefined,1440 x 900,1440 x 900
5m35,null,null,2,86,right,varied,800,0,rightarrow,496,true,1300,focus,yes,515091,Chrome,89.0,macOS,10.14.6,undefined,undefined,1440 x 900,1440 x 900
5m35,null,null,2,87,right,varied,800,0,rightarrow,445,true,1000,focus,yes,518345,Chrome,89.0,macOS,10.14.6,undefined,undefined,1440 x 900,1440 x 900
5m35,null,null,2,88,left,varied,400,0,leftarrow,460,true,1200,focus,yes,521613,Chrome,89.0,macOS,10.14.6,undefined,undefined,1440 x 900,1440 x 900
5m35,null,null,2,89,right,varied,800,0,rightarrow,526,true,1100,focus,yes,525151,Chrome,89.0,macOS,10.14.6,undefined,undefined,1440 x 900,1440 x 900
5m35,null,null,2,90,left,varied,1000,0,leftarrow,466,true,1400,focus,yes,529433,Chrome,89.0,macOS,10.14.6,undefined,undefined,1440 x 900,1440 x 900
5m35,null,null,2,91,right,varied,400,0,rightarrow,390,true,1300,focus,yes,532838,Chrome,89.0,macOS,10.14.6,undefined,undefined,1440 x 900,1440 x 900
5m35,null,null,2,92,left,varied,800,0,leftarrow,407,true,1300,focus,yes,536660,Chrome,89.0,macOS,10.14.6,undefined,undefined,1440 x 900,1440 x 900
5m35,null,null,2,93,right,varied,600,0,rightarrow,502,true,1400,focus,yes,540571,Chrome,89.0,macOS,10.14.6,undefined,undefined,1440 x 900,1440 x 900
5m35,null,null,2,94,left,varied,1000,0,leftarrow,506,true,1500,focus,yes,545093,Chrome,89.0,macOS,10.14.6,undefined,undefined,1440 x 900,1440 x 900
5m35,null,null,2,95,right,varied,1000,0,rightarrow,409,true,1100,focus,yes,548715,Chrome,89.0,macOS,10.14.6,undefined,undefined,1440 x 900,1440 x 900
5m35,null,null,2,96,left,varied,600,0,leftarrow,566,true,1200,focus,yes,552296,Chrome,89.0,macOS,10.14.6,undefined,undefined,1440 x 900,1440 x 900
5m35,null,null,2,97,right,varied,800,0,rightarrow,381,true,1100,focus,yes,555693,Chrome,89.0,macOS,10.14.6,undefined,undefined,1440 x 900,1440 x 900
5m35,null,null,2,98,left,varied,200,0,leftarrow,505,true,1400,focus,yes,559207,Chrome,89.0,macOS,10.14.6,undefined,undefined,1440 x 900,1440 x 900
5m35,null,null,2,99,right,varied,200,0,rightarrow,469,true,1000,focus,yes,561889,Chrome,89.0,macOS,10.14.6,undefined,undefined,1440 x 900,1440 x 900
5m35,null,null,2,100,left,varied,200,0,leftarrow,490,true,1200,focus,yes,564994,Chrome,89.0,macOS,10.14.6,undefined,undefined,1440 x 900,1440 x 900
5m35,null,null,2,101,left,varied,600,0,leftarrow,464,true,1100,focus,yes,568270,Chrome,89.0,macOS,10.14.6,undefined,undefined,1440 x 900,1440 x 900
5m35,null,null,2,102,right,varied,200,0,rightarrow,422,true,1300,focus,yes,571508,Chrome,89.0,macOS,10.14.6,undefined,undefined,1440 x 900,1440 x 900
5m35,null,null,2,103,left,varied,600,0,leftarrow,347,true,1200,focus,yes,574867,Chrome,89.0,macOS,10.14.6,undefined,undefined,1440 x 900,1440 x 900
5m35,null,null,2,104,right,varied,200,0,rightarrow,476,true,1400,focus,yes,578358,Chrome,89.0,macOS,10.14.6,undefined,undefined,1440 x 900,1440 x 900
5m35,null,null,2,105,right,varied,1000,0,rightarrow,480,true,1100,focus,yes,582049,Chrome,89.0,macOS,10.14.6,undefined,undefined,1440 x 900,1440 x 900
5m35,null,null,2,106,left,varied,1000,0,leftarrow,480,true,1200,focus,yes,585944,Chrome,89.0,macOS,10.14.6,undefined,undefined,1440 x 900,1440 x 900
5m35,null,null,2,107,left,varied,600,0,leftarrow,405,true,1500,focus,yes,589964,Chrome,89.0,macOS,10.14.6,undefined,undefined,1440 x 900,1440 x 900
5m35,null,null,2,108,right,varied,600,0,rightarrow,457,true,1300,focus,yes,593638,Chrome,89.0,macOS,10.14.6,undefined,undefined,1440 x 900,1440 x 900
5m35,null,null,2,109,right,varied,600,0,rightarrow,565,true,1300,focus,yes,598720,Chrome,89.0,macOS,10.14.6,undefined,undefined,1440 x 900,1440 x 900
5m35,null,null,2,110,left,varied,200,0,leftarrow,447,true,1200,focus,yes,601782,Chrome,89.0,macOS,10.14.6,undefined,undefined,1440 x 900,1440 x 900
5m35,null,null,2,111,left,varied,400,0,leftarrow,384,true,1300,focus,yes,605177,Chrome,89.0,macOS,10.14.6,undefined,undefined,1440 x 900,1440 x 900
5m35,null,null,2,112,right,varied,800,0,rightarrow,431,true,1000,focus,yes,608422,Chrome,89.0,macOS,10.14.6,undefined,undefined,1440 x 900,1440 x 900
5m35,null,null,2,113,right,varied,800,0,rightarrow,493,true,1100,focus,yes,611927,Chrome,89.0,macOS,10.14.6,undefined,undefined,1440 x 900,1440 x 900
5m35,null,null,2,114,left,varied,1000,0,leftarrow,424,true,1200,focus,yes,615766,Chrome,89.0,macOS,10.14.6,undefined,undefined,1440 x 900,1440 x 900
5m35,null,null,2,115,left,varied,400,0,leftarrow,379,true,1400,focus,yes,619359,Chrome,89.0,macOS,10.14.6,undefined,undefined,1440 x 900,1440 x 900
5m35,null,null,2,116,right,varied,1000,0,rightarrow,495,true,1000,focus,yes,622869,Chrome,89.0,macOS,10.14.6,undefined,undefined,1440 x 900,1440 x 900
5m35,null,null,2,117,right,varied,800,0,rightarrow,496,true,1100,focus,yes,626378,Chrome,89.0,macOS,10.14.6,undefined,undefined,1440 x 900,1440 x 900
5m35,null,null,2,118,left,varied,1000,0,leftarrow,535,true,1400,focus,yes,630725,Chrome,89.0,macOS,10.14.6,undefined,undefined,1440 x 900,1440 x 900
5m35,null,null,2,119,right,varied,800,0,rightarrow,481,true,1200,focus,yes,634421,Chrome,89.0,macOS,10.14.6,undefined,undefined,1440 x 900,1440 x 900
5m35,null,null,2,120,left,varied,1000,0,leftarrow,455,true,1000,focus,yes,637883,Chrome,89.0,macOS,10.14.6,undefined,undefined,1440 x 900,1440 x 900
5m35,null,null,3,121,left,fixed-blank,300,300,leftarrow,461,true,1400,focus,yes,651506,Chrome,89.0,macOS,10.14.6,undefined,undefined,1440 x 900,1440 x 900
5m35,null,null,3,122,right,fixed-blank,300,300,rightarrow,397,true,1200,focus,yes,654918,Chrome,89.0,macOS,10.14.6,undefined,undefined,1440 x 900,1440 x 900
5m35,null,null,3,123,right,fixed-blank,300,300,rightarrow,479,true,1400,focus,yes,658814,Chrome,89.0,macOS,10.14.6,undefined,undefined,1440 x 900,1440 x 900
5m35,null,null,3,124,left,fixed-blank,300,300,leftarrow,356,true,1400,focus,yes,662581,Chrome,89.0,macOS,10.14.6,undefined,undefined,1440 x 900,1440 x 900
5m35,null,null,3,125,right,fixed-blank,300,300,rightarrow,350,true,1100,focus,yes,665737,Chrome,89.0,macOS,10.14.6,undefined,undefined,1440 x 900,1440 x 900
5m35,null,null,3,126,left,fixed-blank,300,300,leftarrow,462,true,1400,focus,yes,669614,Chrome,89.0,macOS,10.14.6,undefined,undefined,1440 x 900,1440 x 900
5m35,null,null,3,127,right,fixed-blank,300,300,rightarrow,356,true,1500,focus,yes,673584,Chrome,89.0,macOS,10.14.6,undefined,undefined,1440 x 900,1440 x 900
5m35,null,null,3,128,left,fixed-blank,300,300,leftarrow,316,true,1500,focus,yes,677508,Chrome,89.0,macOS,10.14.6,undefined,undefined,1440 x 900,1440 x 900
5m35,null,null,3,129,left,fixed-blank,300,300,rightarrow,313,false,1200,focus,yes,680833,Chrome,89.0,macOS,10.14.6,undefined,undefined,1440 x 900,1440 x 900
5m35,null,null,3,130,right,fixed-blank,300,300,rightarrow,440,true,1000,focus,yes,683888,Chrome,89.0,macOS,10.14.6,undefined,undefined,1440 x 900,1440 x 900
5m35,null,null,3,131,left,fixed-blank,300,300,leftarrow,337,true,1400,focus,yes,687636,Chrome,89.0,macOS,10.14.6,undefined,undefined,1440 x 900,1440 x 900
5m35,null,null,3,132,right,fixed-blank,300,300,rightarrow,482,true,1000,focus,yes,690731,Chrome,89.0,macOS,10.14.6,undefined,undefined,1440 x 900,1440 x 900
5m35,null,null,3,133,right,fixed-blank,300,300,rightarrow,498,true,1200,focus,yes,694244,Chrome,89.0,macOS,10.14.6,undefined,undefined,1440 x 900,1440 x 900
5m35,null,null,3,134,left,fixed-blank,300,300,leftarrow,425,true,1100,focus,yes,697480,Chrome,89.0,macOS,10.14.6,undefined,undefined,1440 x 900,1440 x 900
5m35,null,null,3,135,left,fixed-blank,300,300,leftarrow,513,true,1300,focus,yes,701207,Chrome,89.0,macOS,10.14.6,undefined,undefined,1440 x 900,1440 x 900
5m35,null,null,3,136,right,fixed-blank,300,300,rightarrow,496,true,1300,focus,yes,704919,Chrome,89.0,macOS,10.14.6,undefined,undefined,1440 x 900,1440 x 900
5m35,null,null,3,137,right,fixed-blank,300,300,rightarrow,518,true,1100,focus,yes,708248,Chrome,89.0,macOS,10.14.6,undefined,undefined,1440 x 900,1440 x 900
5m35,null,null,3,138,left,fixed-blank,300,300,leftarrow,401,true,1500,focus,yes,712262,Chrome,89.0,macOS,10.14.6,undefined,undefined,1440 x 900,1440 x 900
5m35,null,null,3,139,right,fixed-blank,300,300,rightarrow,431,true,1400,focus,yes,716104,Chrome,89.0,macOS,10.14.6,undefined,undefined,1440 x 900,1440 x 900
5m35,null,null,3,140,left,fixed-blank,300,300,leftarrow,454,true,1400,focus,yes,719971,Chrome,89.0,macOS,10.14.6,undefined,undefined,1440 x 900,1440 x 900
5m35,null,null,3,141,left,fixed-blank,300,300,leftarrow,515,true,1200,focus,yes,723501,Chrome,89.0,macOS,10.14.6,undefined,undefined,1440 x 900,1440 x 900
5m35,null,null,3,142,right,fixed-blank,300,300,rightarrow,483,true,1200,focus,yes,726995,Chrome,89.0,macOS,10.14.6,undefined,undefined,1440 x 900,1440 x 900
5m35,null,null,3,143,left,fixed-blank,300,300,leftarrow,452,true,1300,focus,yes,730654,Chrome,89.0,macOS,10.14.6,undefined,undefined,1440 x 900,1440 x 900
5m35,null,null,3,144,right,fixed-blank,300,300,rightarrow,516,true,1300,focus,yes,734386,Chrome,89.0,macOS,10.14.6,undefined,undefined,1440 x 900,1440 x 900
5m35,null,null,3,145,left,fixed-blank,300,300,leftarrow,390,true,1200,focus,yes,737788,Chrome,89.0,macOS,10.14.6,undefined,undefined,1440 x 900,1440 x 900
5m35,null,null,3,146,right,fixed-blank,300,300,rightarrow,448,true,1000,focus,yes,740848,Chrome,89.0,macOS,10.14.6,undefined,undefined,1440 x 900,1440 x 900
5m35,null,null,3,147,left,fixed-blank,300,300,leftarrow,471,true,1300,focus,yes,744533,Chrome,89.0,macOS,10.14.6,undefined,undefined,1440 x 900,1440 x 900
5m35,null,null,3,148,right,fixed-blank,300,300,rightarrow,443,true,1200,focus,yes,747991,Chrome,89.0,macOS,10.14.6,undefined,undefined,1440 x 900,1440 x 900
5m35,null,null,3,149,left,fixed-blank,300,300,leftarrow,352,true,1500,focus,yes,751957,Chrome,89.0,macOS,10.14.6,undefined,undefined,1440 x 900,1440 x 900
5m35,null,null,3,150,right,fixed-blank,300,300,rightarrow,459,true,1100,focus,yes,755227,Chrome,89.0,macOS,10.14.6,undefined,undefined,1440 x 900,1440 x 900
5m35,null,null,3,151,left,fixed-blank,300,300,leftarrow,392,true,1400,focus,yes,759035,Chrome,89.0,macOS,10.14.6,undefined,undefined,1440 x 900,1440 x 900
5m35,null,null,3,152,right,fixed-blank,300,300,rightarrow,578,true,1200,focus,yes,762628,Chrome,89.0,macOS,10.14.6,undefined,undefined,1440 x 900,1440 x 900
5m35,null,null,3,153,right,fixed-blank,300,300,rightarrow,436,true,1100,focus,yes,765877,Chrome,89.0,macOS,10.14.6,undefined,undefined,1440 x 900,1440 x 900
5m35,null,null,3,154,left,fixed-blank,300,300,leftarrow,369,true,1200,focus,yes,769257,Chrome,89.0,macOS,10.14.6,undefined,undefined,1440 x 900,1440 x 900
5m35,null,null,3,155,right,fixed-blank,300,300,rightarrow,393,true,1000,focus,yes,772263,Chrome,89.0,macOS,10.14.6,undefined,undefined,1440 x 900,1440 x 900
5m35,null,null,3,156,left,fixed-blank,300,300,leftarrow,400,true,1300,focus,yes,775877,Chrome,89.0,macOS,10.14.6,undefined,undefined,1440 x 900,1440 x 900
5m35,null,null,3,157,left,fixed-blank,300,300,leftarrow,405,true,1000,focus,yes,778890,Chrome,89.0,macOS,10.14.6,undefined,undefined,1440 x 900,1440 x 900
5m35,null,null,3,158,right,fixed-blank,300,300,rightarrow,556,true,1500,focus,yes,783061,Chrome,89.0,macOS,10.14.6,undefined,undefined,1440 x 900,1440 x 900
5m35,null,null,3,159,left,fixed-blank,300,300,leftarrow,391,true,1200,focus,yes,786467,Chrome,89.0,macOS,10.14.6,undefined,undefined,1440 x 900,1440 x 900
5m35,null,null,3,160,right,fixed-blank,300,300,leftarrow,320,false,1300,focus,yes,790001,Chrome,89.0,macOS,10.14.6,undefined,undefined,1440 x 900,1440 x 900
5m35,null,null,3,161,right,fixed-blank,300,300,rightarrow,393,true,1500,focus,yes,794009,Chrome,89.0,macOS,10.14.6,undefined,undefined,1440 x 900,1440 x 900
5m35,null,null,3,162,left,fixed-blank,300,300,leftarrow,346,true,1400,focus,yes,797769,Chrome,89.0,macOS,10.14.6,undefined,undefined,1440 x 900,1440 x 900
5m35,null,null,3,163,left,fixed-blank,300,300,leftarrow,422,true,1400,focus,yes,801603,Chrome,89.0,macOS,10.14.6,undefined,undefined,1440 x 900,1440 x 900
5m35,null,null,3,164,right,fixed-blank,300,300,rightarrow,368,true,1500,focus,yes,805588,Chrome,89.0,macOS,10.14.6,undefined,undefined,1440 x 900,1440 x 900
5m35,null,null,3,165,left,fixed-blank,300,300,leftarrow,546,true,1400,focus,yes,809544,Chrome,89.0,macOS,10.14.6,undefined,undefined,1440 x 900,1440 x 900
5m35,null,null,3,166,right,fixed-blank,300,300,rightarrow,535,true,1400,focus,yes,813492,Chrome,89.0,macOS,10.14.6,undefined,undefined,1440 x 900,1440 x 900
5m35,null,null,3,167,right,fixed-blank,300,300,rightarrow,431,true,1400,focus,yes,817339,Chrome,89.0,macOS,10.14.6,undefined,undefined,1440 x 900,1440 x 900
5m35,null,null,3,168,left,fixed-blank,300,300,leftarrow,410,true,1500,focus,yes,821364,Chrome,89.0,macOS,10.14.6,undefined,undefined,1440 x 900,1440 x 900
5m35,null,null,3,169,left,fixed-blank,300,300,leftarrow,534,true,1500,focus,yes,825510,Chrome,89.0,macOS,10.14.6,undefined,undefined,1440 x 900,1440 x 900
5m35,null,null,3,170,right,fixed-blank,300,300,rightarrow,564,true,1400,focus,yes,829490,Chrome,89.0,macOS,10.14.6,undefined,undefined,1440 x 900,1440 x 900
5m35,null,null,4,171,right,fixed-filled,600,0,rightarrow,554,true,1100,focus,yes,838685,Chrome,89.0,macOS,10.14.6,undefined,undefined,1440 x 900,1440 x 900
5m35,null,null,4,172,left,fixed-filled,600,0,leftarrow,440,true,1100,focus,yes,841935,Chrome,89.0,macOS,10.14.6,undefined,undefined,1440 x 900,1440 x 900
5m35,null,null,4,173,left,fixed-filled,600,0,leftarrow,428,true,1400,focus,yes,845776,Chrome,89.0,macOS,10.14.6,undefined,undefined,1440 x 900,1440 x 900
5m35,null,null,4,174,right,fixed-filled,600,0,rightarrow,421,true,1200,focus,yes,849213,Chrome,89.0,macOS,10.14.6,undefined,undefined,1440 x 900,1440 x 900
5m35,null,null,4,175,right,fixed-filled,600,0,rightarrow,447,true,1100,focus,yes,852472,Chrome,89.0,macOS,10.14.6,undefined,undefined,1440 x 900,1440 x 900
5m35,null,null,4,176,left,fixed-filled,600,0,leftarrow,381,true,1100,focus,yes,855670,Chrome,89.0,macOS,10.14.6,undefined,undefined,1440 x 900,1440 x 900
5m35,null,null,4,177,right,fixed-filled,600,0,rightarrow,555,true,1000,focus,yes,858840,Chrome,89.0,macOS,10.14.6,undefined,undefined,1440 x 900,1440 x 900
5m35,null,null,4,178,left,fixed-filled,600,0,leftarrow,390,true,1300,focus,yes,862442,Chrome,89.0,macOS,10.14.6,undefined,undefined,1440 x 900,1440 x 900
5m35,null,null,4,179,left,fixed-filled,600,0,leftarrow,440,true,1000,focus,yes,865496,Chrome,89.0,macOS,10.14.6,undefined,undefined,1440 x 900,1440 x 900
5m35,null,null,4,180,right,fixed-filled,600,0,rightarrow,445,true,1300,focus,yes,869151,Chrome,89.0,macOS,10.14.6,undefined,undefined,1440 x 900,1440 x 900
5m35,null,null,4,181,right,fixed-filled,600,0,rightarrow,660,true,1000,focus,yes,872424,Chrome,89.0,macOS,10.14.6,undefined,undefined,1440 x 900,1440 x 900
5m35,null,null,4,182,left,fixed-filled,600,0,leftarrow,616,true,1200,focus,yes,876055,Chrome,89.0,macOS,10.14.6,undefined,undefined,1440 x 900,1440 x 900
5m35,null,null,4,183,right,fixed-filled,600,0,rightarrow,505,true,1200,focus,yes,879577,Chrome,89.0,macOS,10.14.6,undefined,undefined,1440 x 900,1440 x 900
5m35,null,null,4,184,left,fixed-filled,600,0,leftarrow,426,true,1200,focus,yes,883015,Chrome,89.0,macOS,10.14.6,undefined,undefined,1440 x 900,1440 x 900
5m35,null,null,4,185,right,fixed-filled,600,0,rightarrow,57,true,1500,focus,yes,886687,Chrome,89.0,macOS,10.14.6,undefined,undefined,1440 x 900,1440 x 900
5m35,null,null,4,186,left,fixed-filled,600,0,leftarrow,500,true,1400,focus,yes,890595,Chrome,89.0,macOS,10.14.6,undefined,undefined,1440 x 900,1440 x 900
5m35,null,null,4,187,left,fixed-filled,600,0,leftarrow,407,true,1100,focus,yes,893813,Chrome,89.0,macOS,10.14.6,undefined,undefined,1440 x 900,1440 x 900
5m35,null,null,4,188,right,fixed-filled,600,0,leftarrow,59,false,1500,focus,yes,897485,Chrome,89.0,macOS,10.14.6,undefined,undefined,1440 x 900,1440 x 900
5m35,null,null,4,189,right,fixed-filled,600,0,rightarrow,456,true,1100,focus,yes,900750,Chrome,89.0,macOS,10.14.6,undefined,undefined,1440 x 900,1440 x 900
5m35,null,null,4,190,left,fixed-filled,600,0,leftarrow,430,true,1400,focus,yes,904595,Chrome,89.0,macOS,10.14.6,undefined,undefined,1440 x 900,1440 x 900
5m35,null,null,4,191,left,fixed-filled,600,0,leftarrow,483,true,1200,focus,yes,908089,Chrome,89.0,macOS,10.14.6,undefined,undefined,1440 x 900,1440 x 900
5m35,null,null,4,192,right,fixed-filled,600,0,rightarrow,410,true,1100,focus,yes,911313,Chrome,89.0,macOS,10.14.6,undefined,undefined,1440 x 900,1440 x 900
5m35,null,null,4,193,right,fixed-filled,600,0,rightarrow,560,true,1200,focus,yes,914886,Chrome,89.0,macOS,10.14.6,undefined,undefined,1440 x 900,1440 x 900
5m35,null,null,4,194,left,fixed-filled,600,0,leftarrow,383,true,1100,focus,yes,918075,Chrome,89.0,macOS,10.14.6,undefined,undefined,1440 x 900,1440 x 900
5m35,null,null,4,195,left,fixed-filled,600,0,leftarrow,333,true,1400,focus,yes,921814,Chrome,89.0,macOS,10.14.6,undefined,undefined,1440 x 900,1440 x 900
5m35,null,null,4,196,right,fixed-filled,600,0,rightarrow,456,true,1100,focus,yes,925079,Chrome,89.0,macOS,10.14.6,undefined,undefined,1440 x 900,1440 x 900
5m35,null,null,4,197,left,fixed-filled,600,0,leftarrow,386,true,1100,focus,yes,928282,Chrome,89.0,macOS,10.14.6,undefined,undefined,1440 x 900,1440 x 900
5m35,null,null,4,198,right,fixed-filled,600,0,rightarrow,446,true,1400,focus,yes,932139,Chrome,89.0,macOS,10.14.6,undefined,undefined,1440 x 900,1440 x 900
5m35,null,null,4,199,right,fixed-filled,600,0,rightarrow,490,true,1500,focus,yes,936242,Chrome,89.0,macOS,10.14.6,undefined,undefined,1440 x 900,1440 x 900
5m35,null,null,4,200,left,fixed-filled,600,0,leftarrow,458,true,1200,focus,yes,939712,Chrome,89.0,macOS,10.14.6,undefined,undefined,1440 x 900,1440 x 900
5m35,null,null,4,201,left,fixed-filled,600,0,leftarrow,482,true,1500,focus,yes,943809,Chrome,89.0,macOS,10.14.6,undefined,undefined,1440 x 900,1440 x 900
5m35,null,null,4,202,right,fixed-filled,600,0,rightarrow,609,true,1400,focus,yes,947834,Chrome,89.0,macOS,10.14.6,undefined,undefined,1440 x 900,1440 x 900
5m35,null,null,4,203,left,fixed-filled,600,0,leftarrow,420,true,1100,focus,yes,951069,Chrome,89.0,macOS,10.14.6,undefined,undefined,1440 x 900,1440 x 900
5m35,null,null,4,204,right,fixed-filled,600,0,rightarrow,472,true,1100,focus,yes,954358,Chrome,89.0,macOS,10.14.6,undefined,undefined,1440 x 900,1440 x 900
5m35,null,null,4,205,right,fixed-filled,600,0,rightarrow,468,true,1300,focus,yes,958041,Chrome,89.0,macOS,10.14.6,undefined,undefined,1440 x 900,1440 x 900
5m35,null,null,4,206,left,fixed-filled,600,0,leftarrow,458,true,1300,focus,yes,961710,Chrome,89.0,macOS,10.14.6,undefined,undefined,1440 x 900,1440 x 900
5m35,null,null,4,207,right,fixed-filled,600,0,rightarrow,548,true,1200,focus,yes,965273,Chrome,89.0,macOS,10.14.6,undefined,undefined,1440 x 900,1440 x 900
5m35,null,null,4,208,left,fixed-filled,600,0,leftarrow,447,true,1200,focus,yes,968734,Chrome,89.0,macOS,10.14.6,undefined,undefined,1440 x 900,1440 x 900
5m35,null,null,4,209,left,fixed-filled,600,0,leftarrow,453,true,1000,focus,yes,971801,Chrome,89.0,macOS,10.14.6,undefined,undefined,1440 x 900,1440 x 900
5m35,null,null,4,210,right,fixed-filled,600,0,rightarrow,390,true,1400,focus,yes,975608,Chrome,89.0,macOS,10.14.6,undefined,undefined,1440 x 900,1440 x 900
5m35,null,null,4,211,left,fixed-filled,600,0,leftarrow,442,true,1100,focus,yes,978862,Chrome,89.0,macOS,10.14.6,undefined,undefined,1440 x 900,1440 x 900
5m35,null,null,4,212,right,fixed-filled,600,0,rightarrow,459,true,1200,focus,yes,982338,Chrome,89.0,macOS,10.14.6,undefined,undefined,1440 x 900,1440 x 900
5m35,null,null,4,213,left,fixed-filled,600,0,leftarrow,432,true,1200,focus,yes,985781,Chrome,89.0,macOS,10.14.6,undefined,undefined,1440 x 900,1440 x 900
5m35,null,null,4,214,right,fixed-filled,600,0,rightarrow,579,true,1500,focus,yes,989975,Chrome,89.0,macOS,10.14.6,undefined,undefined,1440 x 900,1440 x 900
5m35,null,null,4,215,right,fixed-filled,600,0,rightarrow,559,true,1500,focus,yes,994147,Chrome,89.0,macOS,10.14.6,undefined,undefined,1440 x 900,1440 x 900
5m35,null,null,4,216,left,fixed-filled,600,0,leftarrow,541,true,1100,focus,yes,997501,Chrome,89.0,macOS,10.14.6,undefined,undefined,1440 x 900,1440 x 900
5m35,null,null,4,217,right,fixed-filled,600,0,rightarrow,701,true,1200,focus,yes,1001216,Chrome,89.0,macOS,10.14.6,undefined,undefined,1440 x 900,1440 x 900
5m35,null,null,4,218,left,fixed-filled,600,0,leftarrow,478,true,1400,focus,yes,1005110,Chrome,89.0,macOS,10.14.6,undefined,undefined,1440 x 900,1440 x 900
5m35,null,null,4,219,right,fixed-filled,600,0,rightarrow,494,true,1000,focus,yes,1008211,Chrome,89.0,macOS,10.14.6,undefined,undefined,1440 x 900,1440 x 900
5m35,null,null,4,220,left,fixed-filled,600,0,leftarrow,362,true,1200,focus,yes,1011584,Chrome,89.0,macOS,10.14.6,undefined,undefined,1440 x 900,1440 x 900
5m35,null,null,5,221,left,fixed-filled,600,0,leftarrow,476,true,1000,focus,yes,1020953,Chrome,89.0,macOS,10.14.6,undefined,undefined,1440 x 900,1440 x 900
5m35,null,null,5,222,right,fixed-filled,600,0,leftarrow,720,false,1400,focus,yes,1025090,Chrome,89.0,macOS,10.14.6,undefined,undefined,1440 x 900,1440 x 900
5m35,null,null,5,223,left,fixed-filled,600,0,leftarrow,564,true,1200,focus,yes,1028669,Chrome,89.0,macOS,10.14.6,undefined,undefined,1440 x 900,1440 x 900
5m35,null,null,5,224,right,fixed-filled,600,0,rightarrow,555,true,1200,focus,yes,1032235,Chrome,89.0,macOS,10.14.6,undefined,undefined,1440 x 900,1440 x 900
5m35,null,null,5,225,left,fixed-filled,600,0,leftarrow,451,true,1500,focus,yes,1036297,Chrome,89.0,macOS,10.14.6,undefined,undefined,1440 x 900,1440 x 900
5m35,null,null,5,226,right,fixed-filled,600,0,rightarrow,530,true,1500,focus,yes,1040440,Chrome,89.0,macOS,10.14.6,undefined,undefined,1440 x 900,1440 x 900
5m35,null,null,5,227,right,fixed-filled,600,0,rightarrow,444,true,1300,focus,yes,1044092,Chrome,89.0,macOS,10.14.6,undefined,undefined,1440 x 900,1440 x 900
5m35,null,null,5,228,left,fixed-filled,600,0,leftarrow,398,true,1000,focus,yes,1047101,Chrome,89.0,macOS,10.14.6,undefined,undefined,1440 x 900,1440 x 900
5m35,null,null,5,229,left,fixed-filled,600,0,rightarrow,392,false,1400,focus,yes,1050909,Chrome,89.0,macOS,10.14.6,undefined,undefined,1440 x 900,1440 x 900
5m35,null,null,5,230,right,fixed-filled,600,0,rightarrow,603,true,1000,focus,yes,1054127,Chrome,89.0,macOS,10.14.6,undefined,undefined,1440 x 900,1440 x 900
5m35,null,null,5,231,right,fixed-filled,600,0,rightarrow,468,true,1500,focus,yes,1058206,Chrome,89.0,macOS,10.14.6,undefined,undefined,1440 x 900,1440 x 900
5m35,null,null,5,232,left,fixed-filled,600,0,leftarrow,474,true,1000,focus,yes,1061293,Chrome,89.0,macOS,10.14.6,undefined,undefined,1440 x 900,1440 x 900
5m35,null,null,5,233,left,fixed-filled,600,0,leftarrow,559,true,1500,focus,yes,1065466,Chrome,89.0,macOS,10.14.6,undefined,undefined,1440 x 900,1440 x 900
5m35,null,null,5,234,right,fixed-filled,600,0,rightarrow,535,true,1100,focus,yes,1068816,Chrome,89.0,macOS,10.14.6,undefined,undefined,1440 x 900,1440 x 900
5m35,null,null,5,235,left,fixed-filled,600,0,leftarrow,476,true,1500,focus,yes,1072905,Chrome,89.0,macOS,10.14.6,undefined,undefined,1440 x 900,1440 x 900
5m35,null,null,5,236,right,fixed-filled,600,0,rightarrow,543,true,1100,focus,yes,1076263,Chrome,89.0,macOS,10.14.6,undefined,undefined,1440 x 900,1440 x 900
5m35,null,null,5,237,left,fixed-filled,600,0,leftarrow,476,true,1400,focus,yes,1080148,Chrome,89.0,macOS,10.14.6,undefined,undefined,1440 x 900,1440 x 900
5m35,null,null,5,238,right,fixed-filled,600,0,rightarrow,550,true,1100,focus,yes,1083512,Chrome,89.0,macOS,10.14.6,undefined,undefined,1440 x 900,1440 x 900
5m35,null,null,5,239,left,fixed-filled,600,0,leftarrow,497,true,1500,focus,yes,1087620,Chrome,89.0,macOS,10.14.6,undefined,undefined,1440 x 900,1440 x 900
5m35,null,null,5,240,right,fixed-filled,600,0,rightarrow,521,true,1400,focus,yes,1091550,Chrome,89.0,macOS,10.14.6,undefined,undefined,1440 x 900,1440 x 900
5m35,null,null,5,241,right,fixed-filled,600,0,rightarrow,485,true,1000,focus,yes,1094645,Chrome,89.0,macOS,10.14.6,undefined,undefined,1440 x 900,1440 x 900
5m35,null,null,5,242,left,fixed-filled,600,0,leftarrow,431,true,1000,focus,yes,1097687,Chrome,89.0,macOS,10.14.6,undefined,undefined,1440 x 900,1440 x 900
5m35,null,null,5,243,right,fixed-filled,600,0,rightarrow,462,true,1200,focus,yes,1101165,Chrome,89.0,macOS,10.14.6,undefined,undefined,1440 x 900,1440 x 900
5m35,null,null,5,244,left,fixed-filled,600,0,leftarrow,462,true,1500,focus,yes,1105244,Chrome,89.0,macOS,10.14.6,undefined,undefined,1440 x 900,1440 x 900
5m35,null,null,5,245,right,fixed-filled,600,0,rightarrow,552,true,1400,focus,yes,1109207,Chrome,89.0,macOS,10.14.6,undefined,undefined,1440 x 900,1440 x 900
5m35,null,null,5,246,left,fixed-filled,600,0,leftarrow,657,true,1100,focus,yes,1112677,Chrome,89.0,macOS,10.14.6,undefined,undefined,1440 x 900,1440 x 900
5m35,null,null,5,247,right,fixed-filled,600,0,rightarrow,663,true,1200,focus,yes,1116350,Chrome,89.0,macOS,10.14.6,undefined,undefined,1440 x 900,1440 x 900
5m35,null,null,5,248,left,fixed-filled,600,0,leftarrow,417,true,1500,focus,yes,1120383,Chrome,89.0,macOS,10.14.6,undefined,undefined,1440 x 900,1440 x 900
5m35,null,null,5,249,right,fixed-filled,600,0,rightarrow,474,true,1500,focus,yes,1124469,Chrome,89.0,macOS,10.14.6,undefined,undefined,1440 x 900,1440 x 900
5m35,null,null,5,250,left,fixed-filled,600,0,leftarrow,450,true,1000,focus,yes,1127532,Chrome,89.0,macOS,10.14.6,undefined,undefined,1440 x 900,1440 x 900
5m35,null,null,5,251,left,fixed-filled,600,0,leftarrow,496,true,1300,focus,yes,1131242,Chrome,89.0,macOS,10.14.6,undefined,undefined,1440 x 900,1440 x 900
5m35,null,null,5,252,right,fixed-filled,600,0,rightarrow,614,true,1300,focus,yes,1135072,Chrome,89.0,macOS,10.14.6,undefined,undefined,1440 x 900,1440 x 900
5m35,null,null,5,253,left,fixed-filled,600,0,leftarrow,405,true,1100,focus,yes,1138289,Chrome,89.0,macOS,10.14.6,undefined,undefined,1440 x 900,1440 x 900
5m35,null,null,5,254,right,fixed-filled,600,0,rightarrow,410,true,1300,focus,yes,1141917,Chrome,89.0,macOS,10.14.6,undefined,undefined,1440 x 900,1440 x 900
5m35,null,null,5,255,right,fixed-filled,600,0,rightarrow,658,true,1500,focus,yes,1146191,Chrome,89.0,macOS,10.14.6,undefined,undefined,1440 x 900,1440 x 900
5m35,null,null,5,256,left,fixed-filled,600,0,leftarrow,472,true,1400,focus,yes,1150079,Chrome,89.0,macOS,10.14.6,undefined,undefined,1440 x 900,1440 x 900
5m35,null,null,5,257,right,fixed-filled,600,0,rightarrow,573,true,1100,focus,yes,1153464,Chrome,89.0,macOS,10.14.6,undefined,undefined,1440 x 900,1440 x 900
5m35,null,null,5,258,left,fixed-filled,600,0,leftarrow,540,true,1400,focus,yes,1157416,Chrome,89.0,macOS,10.14.6,undefined,undefined,1440 x 900,1440 x 900
5m35,null,null,5,259,right,fixed-filled,600,0,rightarrow,521,true,1200,focus,yes,1160948,Chrome,89.0,macOS,10.14.6,undefined,undefined,1440 x 900,1440 x 900
5m35,null,null,5,260,left,fixed-filled,600,0,leftarrow,427,true,1400,focus,yes,1164791,Chrome,89.0,macOS,10.14.6,undefined,undefined,1440 x 900,1440 x 900
5m35,null,null,5,261,right,fixed-filled,600,0,rightarrow,456,true,1000,focus,yes,1167854,Chrome,89.0,macOS,10.14.6,undefined,undefined,1440 x 900,1440 x 900
5m35,null,null,5,262,left,fixed-filled,600,0,leftarrow,430,true,1300,focus,yes,1171499,Chrome,89.0,macOS,10.14.6,undefined,undefined,1440 x 900,1440 x 900
5m35,null,null,5,263,left,fixed-filled,600,0,leftarrow,473,true,1100,focus,yes,1174783,Chrome,89.0,macOS,10.14.6,undefined,undefined,1440 x 900,1440 x 900
5m35,null,null,5,264,right,fixed-filled,600,0,rightarrow,547,true,1500,focus,yes,1178946,Chrome,89.0,macOS,10.14.6,undefined,undefined,1440 x 900,1440 x 900
5m35,null,null,5,265,right,fixed-filled,600,0,rightarrow,546,true,1200,focus,yes,1182505,Chrome,89.0,macOS,10.14.6,undefined,undefined,1440 x 900,1440 x 900
5m35,null,null,5,266,left,fixed-filled,600,0,leftarrow,389,true,1200,focus,yes,1185908,Chrome,89.0,macOS,10.14.6,undefined,undefined,1440 x 900,1440 x 900
5m35,null,null,5,267,right,fixed-filled,600,0,rightarrow,450,true,1400,focus,yes,1189769,Chrome,89.0,macOS,10.14.6,undefined,undefined,1440 x 900,1440 x 900
5m35,null,null,5,268,left,fixed-filled,600,0,leftarrow,351,true,1200,focus,yes,1193137,Chrome,89.0,macOS,10.14.6,undefined,undefined,1440 x 900,1440 x 900
5m35,null,null,5,269,left,fixed-filled,600,0,leftarrow,379,true,1400,focus,yes,1196924,Chrome,89.0,macOS,10.14.6,undefined,undefined,1440 x 900,1440 x 900
5m35,null,null,5,270,right,fixed-filled,600,0,rightarrow,504,true,1100,focus,yes,1200240,Chrome,89.0,macOS,10.14.6,undefined,undefined,1440 x 900,1440 x 900
5m35,null,null,6,271,left,fixed-blank,300,300,leftarrow,393,true,1500,focus,yes,1213426,Chrome,89.0,macOS,10.14.6,undefined,undefined,1440 x 900,1440 x 900
5m35,null,null,6,272,right,fixed-blank,300,300,rightarrow,429,true,1200,focus,yes,1216871,Chrome,89.0,macOS,10.14.6,undefined,undefined,1440 x 900,1440 x 900
5m35,null,null,6,273,left,fixed-blank,300,300,leftarrow,394,true,1400,focus,yes,1220675,Chrome,89.0,macOS,10.14.6,undefined,undefined,1440 x 900,1440 x 900
5m35,null,null,6,274,right,fixed-blank,300,300,rightarrow,596,true,1100,focus,yes,1224081,Chrome,89.0,macOS,10.14.6,undefined,undefined,1440 x 900,1440 x 900
5m35,null,null,6,275,left,fixed-blank,300,300,leftarrow,492,true,1200,focus,yes,1227584,Chrome,89.0,macOS,10.14.6,undefined,undefined,1440 x 900,1440 x 900
5m35,null,null,6,276,right,fixed-blank,300,300,rightarrow,492,true,1500,focus,yes,1231692,Chrome,89.0,macOS,10.14.6,undefined,undefined,1440 x 900,1440 x 900
5m35,null,null,6,277,left,fixed-blank,300,300,leftarrow,570,true,1200,focus,yes,1235275,Chrome,89.0,macOS,10.14.6,undefined,undefined,1440 x 900,1440 x 900
5m35,null,null,6,278,right,fixed-blank,300,300,rightarrow,598,true,1400,focus,yes,1239290,Chrome,89.0,macOS,10.14.6,undefined,undefined,1440 x 900,1440 x 900
5m35,null,null,6,279,right,fixed-blank,300,300,rightarrow,558,true,1000,focus,yes,1242453,Chrome,89.0,macOS,10.14.6,undefined,undefined,1440 x 900,1440 x 900
5m35,null,null,6,280,left,fixed-blank,300,300,leftarrow,465,true,1000,focus,yes,1245532,Chrome,89.0,macOS,10.14.6,undefined,undefined,1440 x 900,1440 x 900
5m35,null,null,6,281,right,fixed-blank,300,300,rightarrow,413,true,1100,focus,yes,1248761,Chrome,89.0,macOS,10.14.6,undefined,undefined,1440 x 900,1440 x 900
5m35,null,null,6,282,left,fixed-blank,300,300,leftarrow,354,true,1300,focus,yes,1252327,Chrome,89.0,macOS,10.14.6,undefined,undefined,1440 x 900,1440 x 900
5m35,null,null,6,283,left,fixed-blank,300,300,leftarrow,336,true,1100,focus,yes,1255478,Chrome,89.0,macOS,10.14.6,undefined,undefined,1440 x 900,1440 x 900
5m35,null,null,6,284,right,fixed-blank,300,300,rightarrow,428,true,1200,focus,yes,1258918,Chrome,89.0,macOS,10.14.6,undefined,undefined,1440 x 900,1440 x 900
5m35,null,null,6,285,left,fixed-blank,300,300,leftarrow,425,true,1500,focus,yes,1262953,Chrome,89.0,macOS,10.14.6,undefined,undefined,1440 x 900,1440 x 900
5m35,null,null,6,286,right,fixed-blank,300,300,rightarrow,357,true,1000,focus,yes,1265917,Chrome,89.0,macOS,10.14.6,undefined,undefined,1440 x 900,1440 x 900
5m35,null,null,6,287,right,fixed-blank,300,300,rightarrow,412,true,1400,focus,yes,1269739,Chrome,89.0,macOS,10.14.6,undefined,undefined,1440 x 900,1440 x 900
5m35,null,null,6,288,left,fixed-blank,300,300,leftarrow,339,true,1400,focus,yes,1273489,Chrome,89.0,macOS,10.14.6,undefined,undefined,1440 x 900,1440 x 900
5m35,null,null,6,289,left,fixed-blank,300,300,leftarrow,374,true,1200,focus,yes,1276878,Chrome,89.0,macOS,10.14.6,undefined,undefined,1440 x 900,1440 x 900
5m35,null,null,6,290,right,fixed-blank,300,300,rightarrow,405,true,1400,focus,yes,1280699,Chrome,89.0,macOS,10.14.6,undefined,undefined,1440 x 900,1440 x 900
5m35,null,null,6,291,right,fixed-blank,300,300,rightarrow,385,true,1500,focus,yes,1284696,Chrome,89.0,macOS,10.14.6,undefined,undefined,1440 x 900,1440 x 900
5m35,null,null,6,292,left,fixed-blank,300,300,leftarrow,462,true,1500,focus,yes,1288769,Chrome,89.0,macOS,10.14.6,undefined,undefined,1440 x 900,1440 x 900
5m35,null,null,6,293,left,fixed-blank,300,300,leftarrow,287,true,1200,focus,yes,1292072,Chrome,89.0,macOS,10.14.6,undefined,undefined,1440 x 900,1440 x 900
5m35,null,null,6,294,right,fixed-blank,300,300,rightarrow,458,true,1500,focus,yes,1296145,Chrome,89.0,macOS,10.14.6,undefined,undefined,1440 x 900,1440 x 900
5m35,null,null,6,295,left,fixed-blank,300,300,leftarrow,364,true,1500,focus,yes,1300125,Chrome,89.0,macOS,10.14.6,undefined,undefined,1440 x 900,1440 x 900
5m35,null,null,6,296,right,fixed-blank,300,300,rightarrow,464,true,1300,focus,yes,1303804,Chrome,89.0,macOS,10.14.6,undefined,undefined,1440 x 900,1440 x 900
5m35,null,null,6,297,left,fixed-blank,300,300,leftarrow,478,true,1200,focus,yes,1307297,Chrome,89.0,macOS,10.14.6,undefined,undefined,1440 x 900,1440 x 900
5m35,null,null,6,298,right,fixed-blank,300,300,rightarrow,355,true,1300,focus,yes,1310865,Chrome,89.0,macOS,10.14.6,undefined,undefined,1440 x 900,1440 x 900
5m35,null,null,6,299,right,fixed-blank,300,300,rightarrow,406,true,1400,focus,yes,1314682,Chrome,89.0,macOS,10.14.6,undefined,undefined,1440 x 900,1440 x 900
5m35,null,null,6,300,left,fixed-blank,300,300,leftarrow,362,true,1200,focus,yes,1318057,Chrome,89.0,macOS,10.14.6,undefined,undefined,1440 x 900,1440 x 900
5m35,null,null,6,301,right,fixed-blank,300,300,rightarrow,417,true,1100,focus,yes,1321292,Chrome,89.0,macOS,10.14.6,undefined,undefined,1440 x 900,1440 x 900
5m35,null,null,6,302,left,fixed-blank,300,300,leftarrow,396,true,1300,focus,yes,1324903,Chrome,89.0,macOS,10.14.6,undefined,undefined,1440 x 900,1440 x 900
5m35,null,null,6,303,left,fixed-blank,300,300,leftarrow,363,true,1100,focus,yes,1328081,Chrome,89.0,macOS,10.14.6,undefined,undefined,1440 x 900,1440 x 900
5m35,null,null,6,304,right,fixed-blank,300,300,rightarrow,475,true,1100,focus,yes,1331372,Chrome,89.0,macOS,10.14.6,undefined,undefined,1440 x 900,1440 x 900
5m35,null,null,6,305,right,fixed-blank,300,300,rightarrow,525,true,1000,focus,yes,1334507,Chrome,89.0,macOS,10.14.6,undefined,undefined,1440 x 900,1440 x 900
5m35,null,null,6,306,left,fixed-blank,300,300,leftarrow,506,true,1200,focus,yes,1338025,Chrome,89.0,macOS,10.14.6,undefined,undefined,1440 x 900,1440 x 900
5m35,null,null,6,307,left,fixed-blank,300,300,leftarrow,374,true,1100,focus,yes,1341216,Chrome,89.0,macOS,10.14.6,undefined,undefined,1440 x 900,1440 x 900
5m35,null,null,6,308,right,fixed-blank,300,300,rightarrow,472,true,1500,focus,yes,1345304,Chrome,89.0,macOS,10.14.6,undefined,undefined,1440 x 900,1440 x 900
5m35,null,null,6,309,right,fixed-blank,300,300,rightarrow,457,true,1300,focus,yes,1348977,Chrome,89.0,macOS,10.14.6,undefined,undefined,1440 x 900,1440 x 900
5m35,null,null,6,310,left,fixed-blank,300,300,leftarrow,332,true,1200,focus,yes,1352325,Chrome,89.0,macOS,10.14.6,undefined,undefined,1440 x 900,1440 x 900
5m35,null,null,6,311,left,fixed-blank,300,300,rightarrow,246,false,1300,focus,yes,1355784,Chrome,89.0,macOS,10.14.6,undefined,undefined,1440 x 900,1440 x 900
5m35,null,null,6,312,right,fixed-blank,300,300,rightarrow,394,true,1000,focus,yes,1358793,Chrome,89.0,macOS,10.14.6,undefined,undefined,1440 x 900,1440 x 900
5m35,null,null,6,313,left,fixed-blank,300,300,leftarrow,341,true,1500,focus,yes,1362749,Chrome,89.0,macOS,10.14.6,undefined,undefined,1440 x 900,1440 x 900
5m35,null,null,6,314,right,fixed-blank,300,300,rightarrow,412,true,1500,focus,yes,1366774,Chrome,89.0,macOS,10.14.6,undefined,undefined,1440 x 900,1440 x 900
5m35,null,null,6,315,left,fixed-blank,300,300,leftarrow,359,true,1500,focus,yes,1370748,Chrome,89.0,macOS,10.14.6,undefined,undefined,1440 x 900,1440 x 900
5m35,null,null,6,316,right,fixed-blank,300,300,rightarrow,439,true,1200,focus,yes,1374202,Chrome,89.0,macOS,10.14.6,undefined,undefined,1440 x 900,1440 x 900
5m35,null,null,6,317,left,fixed-blank,300,300,leftarrow,378,true,1400,focus,yes,1377990,Chrome,89.0,macOS,10.14.6,undefined,undefined,1440 x 900,1440 x 900
5m35,null,null,6,318,right,fixed-blank,300,300,rightarrow,466,true,1000,focus,yes,1381067,Chrome,89.0,macOS,10.14.6,undefined,undefined,1440 x 900,1440 x 900
5m35,null,null,6,319,right,fixed-blank,300,300,rightarrow,493,true,1000,focus,yes,1384173,Chrome,89.0,macOS,10.14.6,undefined,undefined,1440 x 900,1440 x 900
5m35,null,null,6,320,left,fixed-blank,300,300,leftarrow,490,true,1000,focus,yes,1387276,Chrome,89.0,macOS,10.14.6,undefined,undefined,1440 x 900,1440 x 900
