subjectID,age,gender,block_i,trial_i,go_cue,block,fixation_duration,blank_interval,response,rt,correct,inter_trial_interval,focus,Fullscreen,time_elapsed,browser_name,browser_version,os_name,os_version,tablet,mobile,screen_resolution,window_resolution
ntyg,null,null,0,1,right,practice,600,0,rightarrow,492,TRUE,1200,focus,yes,63829,Chrome,89,Windows,10,undefined,undefined,1500 x 1000,1500 x 1000
ntyg,null,null,0,2,left,practice,600,0,leftarrow,271,TRUE,1200,focus,yes,67859,Chrome,89,Windows,10,undefined,undefined,1500 x 1000,1500 x 1000
ntyg,null,null,0,3,left,practice,600,0,leftarrow,358,TRUE,1500,focus,yes,72578,Chrome,89,Windows,10,undefined,undefined,1500 x 1000,1500 x 1000
ntyg,null,null,0,4,right,practice,600,0,rightarrow,277,TRUE,1300,focus,yes,76813,Chrome,89,Windows,10,undefined,undefined,1500 x 1000,1500 x 1000
ntyg,null,null,0,5,left,practice,600,0,leftarrow,288,TRUE,1100,focus,yes,80659,Chrome,89,Windows,10,undefined,undefined,1500 x 1000,1500 x 1000
ntyg,null,null,0,6,right,practice,600,0,rightarrow,336,TRUE,1300,focus,yes,84955,Chrome,89,Windows,10,undefined,undefined,1500 x 1000,1500 x 1000
ntyg,null,null,0,7,right,practice,600,0,rightarrow,356,TRUE,1500,focus,yes,89669,Chrome,89,Windows,10,undefined,undefined,1500 x 1000,1500 x 1000
ntyg,null,null,0,8,left,practice,600,0,leftarrow,347,TRUE,1400,focus,yes,94175,Chrome,89,Windows,10,undefined,undefined,1500 x 1000,1500 x 1000
ntyg,null,null,0,9,left,practice,600,0,leftarrow,458,TRUE,1100,focus,yes,98192,Chrome,89,Windows,10,undefined,undefined,1500 x 1000,1500 x 1000
ntyg,null,null,0,10,right,practice,600,0,rightarrow,356,TRUE,1000,focus,yes,101905,Chrome,89,Windows,10,undefined,undefined,1500 x 1000,1500 x 1000
ntyg,null,null,0,11,right,practice,600,0,leftarrow,323,FALSE,1100,focus,yes,105787,Chrome,89,Windows,10,undefined,undefined,1500 x 1000,1500 x 1000
ntyg,null,null,0,12,left,practice,600,0,leftarrow,368,TRUE,1500,focus,yes,110514,Chrome,89,Windows,10,undefined,undefined,1500 x 1000,1500 x 1000
ntyg,null,null,0,13,left,practice,600,0,leftarrow,658,TRUE,1200,focus,yes,114929,Chrome,89,Windows,10,undefined,undefined,1500 x 1000,1500 x 1000
ntyg,null,null,0,14,right,practice,600,0,rightarrow,342,TRUE,1500,focus,yes,119634,Chrome,89,Windows,10,undefined,undefined,1500 x 1000,1500 x 1000
ntyg,null,null,0,15,left,practice,600,0,leftarrow,339,TRUE,1500,focus,yes,124330,Chrome,89,Windows,10,undefined,undefined,1500 x 1000,1500 x 1000
ntyg,null,null,0,16,right,practice,600,0,rightarrow,406,TRUE,1100,focus,yes,128296,Chrome,89,Windows,10,undefined,undefined,1500 x 1000,1500 x 1000
ntyg,null,null,0,17,right,practice,600,0,rightarrow,379,TRUE,1000,focus,yes,132033,Chrome,89,Windows,10,undefined,undefined,1500 x 1000,1500 x 1000
ntyg,null,null,0,18,left,practice,600,0,leftarrow,344,TRUE,1000,focus,yes,135734,Chrome,89,Windows,10,undefined,undefined,1500 x 1000,1500 x 1000
ntyg,null,null,0,19,right,practice,600,0,rightarrow,550,TRUE,1100,focus,yes,139842,Chrome,89,Windows,10,undefined,undefined,1500 x 1000,1500 x 1000
ntyg,null,null,0,20,left,practice,600,0,leftarrow,306,TRUE,1000,focus,yes,143505,Chrome,89,Windows,10,undefined,undefined,1500 x 1000,1500 x 1000
ntyg,null,null,1,21,left,fixed-filled,600,0,leftarrow,352,TRUE,1000,focus,yes,155221,Chrome,89,Windows,10,undefined,undefined,1500 x 1000,1500 x 1000
ntyg,null,null,1,22,right,fixed-filled,600,0,rightarrow,304,TRUE,1300,focus,yes,158732,Chrome,89,Windows,10,undefined,undefined,1500 x 1000,1500 x 1000
ntyg,null,null,1,23,right,fixed-filled,600,0,rightarrow,369,TRUE,1000,focus,yes,161708,Chrome,89,Windows,10,undefined,undefined,1500 x 1000,1500 x 1000
ntyg,null,null,1,24,left,fixed-filled,600,0,leftarrow,289,TRUE,1100,focus,yes,164802,Chrome,89,Windows,10,undefined,undefined,1500 x 1000,1500 x 1000
ntyg,null,null,1,25,left,fixed-filled,600,0,rightarrow,329,FALSE,1500,focus,yes,168739,Chrome,89,Windows,10,undefined,undefined,1500 x 1000,1500 x 1000
ntyg,null,null,1,26,right,fixed-filled,600,0,rightarrow,302,TRUE,1400,focus,yes,173848,Chrome,89,Windows,10,undefined,undefined,1500 x 1000,1500 x 1000
ntyg,null,null,1,27,left,fixed-filled,600,0,leftarrow,364,TRUE,1200,focus,yes,177217,Chrome,89,Windows,10,undefined,undefined,1500 x 1000,1500 x 1000
ntyg,null,null,1,28,right,fixed-filled,600,0,rightarrow,407,TRUE,1300,focus,yes,180830,Chrome,89,Windows,10,undefined,undefined,1500 x 1000,1500 x 1000
ntyg,null,null,1,29,left,fixed-filled,600,0,leftarrow,312,TRUE,1200,focus,yes,184148,Chrome,89,Windows,10,undefined,undefined,1500 x 1000,1500 x 1000
ntyg,null,null,1,30,right,fixed-filled,600,0,rightarrow,289,TRUE,1100,focus,yes,187243,Chrome,89,Windows,10,undefined,undefined,1500 x 1000,1500 x 1000
ntyg,null,null,1,31,right,fixed-filled,600,0,rightarrow,298,TRUE,1400,focus,yes,190947,Chrome,89,Windows,10,undefined,undefined,1500 x 1000,1500 x 1000
ntyg,null,null,1,32,left,fixed-filled,600,0,leftarrow,427,TRUE,1300,focus,yes,194580,Chrome,89,Windows,10,undefined,undefined,1500 x 1000,1500 x 1000
ntyg,null,null,1,33,right,fixed-filled,600,0,rightarrow,336,TRUE,1100,focus,yes,197722,Chrome,89,Windows,10,undefined,undefined,1500 x 1000,1500 x 1000
ntyg,null,null,1,34,left,fixed-filled,600,0,leftarrow,311,TRUE,1200,focus,yes,201040,Chrome,89,Windows,10,undefined,undefined,1500 x 1000,1500 x 1000
ntyg,null,null,1,35,left,fixed-filled,600,0,leftarrow,414,TRUE,1300,focus,yes,204661,Chrome,89,Windows,10,undefined,undefined,1500 x 1000,1500 x 1000
ntyg,null,null,1,36,right,fixed-filled,600,0,rightarrow,362,TRUE,1000,focus,yes,207629,Chrome,89,Windows,10,undefined,undefined,1500 x 1000,1500 x 1000
ntyg,null,null,1,37,left,fixed-filled,600,0,leftarrow,307,TRUE,1300,focus,yes,211141,Chrome,89,Windows,10,undefined,undefined,1500 x 1000,1500 x 1000
ntyg,null,null,1,38,right,fixed-filled,600,0,rightarrow,333,TRUE,1300,focus,yes,214681,Chrome,89,Windows,10,undefined,undefined,1500 x 1000,1500 x 1000
ntyg,null,null,1,39,left,fixed-filled,600,0,leftarrow,320,TRUE,1400,focus,yes,218407,Chrome,89,Windows,10,undefined,undefined,1500 x 1000,1500 x 1000
ntyg,null,null,1,40,right,fixed-filled,600,0,rightarrow,425,TRUE,1400,focus,yes,222237,Chrome,89,Windows,10,undefined,undefined,1500 x 1000,1500 x 1000
ntyg,null,null,1,41,right,fixed-filled,600,0,rightarrow,585,TRUE,1300,focus,yes,226028,Chrome,89,Windows,10,undefined,undefined,1500 x 1000,1500 x 1000
ntyg,null,null,1,42,left,fixed-filled,600,0,leftarrow,412,TRUE,1100,focus,yes,229246,Chrome,89,Windows,10,undefined,undefined,1500 x 1000,1500 x 1000
ntyg,null,null,1,43,right,fixed-filled,600,0,rightarrow,330,TRUE,1400,focus,yes,232983,Chrome,89,Windows,10,undefined,undefined,1500 x 1000,1500 x 1000
ntyg,null,null,1,44,left,fixed-filled,600,0,leftarrow,324,TRUE,1200,focus,yes,236314,Chrome,89,Windows,10,undefined,undefined,1500 x 1000,1500 x 1000
ntyg,null,null,1,45,right,fixed-filled,600,0,rightarrow,296,TRUE,1300,focus,yes,239815,Chrome,89,Windows,10,undefined,undefined,1500 x 1000,1500 x 1000
ntyg,null,null,1,46,left,fixed-filled,600,0,leftarrow,332,TRUE,1400,focus,yes,243552,Chrome,89,Windows,10,undefined,undefined,1500 x 1000,1500 x 1000
ntyg,null,null,1,47,left,fixed-filled,600,0,leftarrow,378,TRUE,1200,focus,yes,246936,Chrome,89,Windows,10,undefined,undefined,1500 x 1000,1500 x 1000
ntyg,null,null,1,48,right,fixed-filled,600,0,rightarrow,297,TRUE,1000,focus,yes,249841,Chrome,89,Windows,10,undefined,undefined,1500 x 1000,1500 x 1000
ntyg,null,null,1,49,left,fixed-filled,600,0,leftarrow,-320,TRUE,1200,focus,yes,252526,Chrome,89,Windows,10,undefined,undefined,1500 x 1000,1500 x 1000
ntyg,null,null,1,50,right,fixed-filled,600,0,rightarrow,329,TRUE,1200,focus,yes,255860,Chrome,89,Windows,10,undefined,undefined,1500 x 1000,1500 x 1000
ntyg,null,null,1,51,right,fixed-filled,600,0,rightarrow,432,TRUE,1300,focus,yes,259498,Chrome,89,Windows,10,undefined,undefined,1500 x 1000,1500 x 1000
ntyg,null,null,1,52,left,fixed-filled,600,0,leftarrow,297,TRUE,1100,focus,yes,262601,Chrome,89,Windows,10,undefined,undefined,1500 x 1000,1500 x 1000
ntyg,null,null,1,53,left,fixed-filled,600,0,rightarrow,312,FALSE,1000,focus,yes,265519,Chrome,89,Windows,10,undefined,undefined,1500 x 1000,1500 x 1000
ntyg,null,null,1,54,right,fixed-filled,600,0,rightarrow,548,TRUE,1400,focus,yes,269472,Chrome,89,Windows,10,undefined,undefined,1500 x 1000,1500 x 1000
ntyg,null,null,1,55,left,fixed-filled,600,0,leftarrow,323,TRUE,1000,focus,yes,272401,Chrome,89,Windows,10,undefined,undefined,1500 x 1000,1500 x 1000
ntyg,null,null,1,56,right,fixed-filled,600,0,rightarrow,364,TRUE,1400,focus,yes,276171,Chrome,89,Windows,10,undefined,undefined,1500 x 1000,1500 x 1000
ntyg,null,null,1,57,right,fixed-filled,600,0,rightarrow,422,TRUE,1100,focus,yes,279399,Chrome,89,Windows,10,undefined,undefined,1500 x 1000,1500 x 1000
ntyg,null,null,1,58,left,fixed-filled,600,0,leftarrow,312,TRUE,1400,focus,yes,283118,Chrome,89,Windows,10,undefined,undefined,1500 x 1000,1500 x 1000
ntyg,null,null,1,59,right,fixed-filled,600,0,rightarrow,314,TRUE,1400,focus,yes,286839,Chrome,89,Windows,10,undefined,undefined,1500 x 1000,1500 x 1000
ntyg,null,null,1,60,left,fixed-filled,600,0,leftarrow,406,TRUE,1000,focus,yes,289852,Chrome,89,Windows,10,undefined,undefined,1500 x 1000,1500 x 1000
ntyg,null,null,1,61,right,fixed-filled,600,0,rightarrow,379,TRUE,1200,focus,yes,293237,Chrome,89,Windows,10,undefined,undefined,1500 x 1000,1500 x 1000
ntyg,null,null,1,62,left,fixed-filled,600,0,leftarrow,277,TRUE,1400,focus,yes,296920,Chrome,89,Windows,10,undefined,undefined,1500 x 1000,1500 x 1000
ntyg,null,null,1,63,left,fixed-filled,600,0,undefined,-600,FALSE,1500,focus,yes,301527,Chrome,89,Windows,10,undefined,undefined,1500 x 1000,1500 x 1000
ntyg,null,null,1,64,right,fixed-filled,600,0,rightarrow,376,TRUE,1100,focus,yes,305811,Chrome,89,Windows,10,undefined,undefined,1500 x 1000,1500 x 1000
ntyg,null,null,1,65,right,fixed-filled,600,0,rightarrow,422,TRUE,1200,focus,yes,309239,Chrome,89,Windows,10,undefined,undefined,1500 x 1000,1500 x 1000
ntyg,null,null,1,66,left,fixed-filled,600,0,leftarrow,301,TRUE,1100,focus,yes,312347,Chrome,89,Windows,10,undefined,undefined,1500 x 1000,1500 x 1000
ntyg,null,null,1,67,left,fixed-filled,600,0,rightarrow,297,FALSE,1200,focus,yes,315651,Chrome,89,Windows,10,undefined,undefined,1500 x 1000,1500 x 1000
ntyg,null,null,1,68,right,fixed-filled,600,0,rightarrow,312,TRUE,1100,focus,yes,318770,Chrome,89,Windows,10,undefined,undefined,1500 x 1000,1500 x 1000
ntyg,null,null,1,69,left,fixed-filled,600,0,leftarrow,388,TRUE,1500,focus,yes,322766,Chrome,89,Windows,10,undefined,undefined,1500 x 1000,1500 x 1000
ntyg,null,null,1,70,right,fixed-filled,600,0,rightarrow,371,TRUE,1100,focus,yes,325944,Chrome,89,Windows,10,undefined,undefined,1500 x 1000,1500 x 1000
ntyg,null,null,2,71,left,varied,800,0,undefined,-800,FALSE,1100,focus,yes,350430,Chrome,89,Windows,10,undefined,undefined,1500 x 1000,1500 x 1000
ntyg,null,null,2,72,right,varied,200,0,undefined,-200,FALSE,1400,focus,yes,354437,Chrome,89,Windows,10,undefined,undefined,1500 x 1000,1500 x 1000
ntyg,null,null,2,73,left,varied,200,0,undefined,-200,FALSE,1000,focus,yes,357643,Chrome,89,Windows,10,undefined,undefined,1500 x 1000,1500 x 1000
ntyg,null,null,2,74,right,varied,400,0,undefined,-400,FALSE,1100,focus,yes,361250,Chrome,89,Windows,10,undefined,undefined,1500 x 1000,1500 x 1000
ntyg,null,null,2,75,left,varied,600,0,undefined,-600,FALSE,1300,focus,yes,365458,Chrome,89,Windows,10,undefined,undefined,1500 x 1000,1500 x 1000
ntyg,null,null,2,76,right,varied,200,0,undefined,-200,FALSE,1500,focus,yes,369664,Chrome,89,Windows,10,undefined,undefined,1500 x 1000,1500 x 1000
ntyg,null,null,2,77,right,varied,800,0,undefined,-800,FALSE,1100,focus,yes,373671,Chrome,89,Windows,10,undefined,undefined,1500 x 1000,1500 x 1000
ntyg,null,null,2,78,left,varied,400,0,undefined,-400,FALSE,1100,focus,yes,377278,Chrome,89,Windows,10,undefined,undefined,1500 x 1000,1500 x 1000
ntyg,null,null,2,79,left,varied,800,0,undefined,-800,FALSE,1100,focus,yes,381286,Chrome,89,Windows,10,undefined,undefined,1500 x 1000,1500 x 1000
ntyg,null,null,2,80,right,varied,1000,0,undefined,-1000,FALSE,1000,focus,yes,385294,Chrome,89,Windows,10,undefined,undefined,1500 x 1000,1500 x 1000
ntyg,null,null,2,81,left,varied,600,0,undefined,-600,FALSE,1100,focus,yes,389102,Chrome,89,Windows,10,undefined,undefined,1500 x 1000,1500 x 1000
ntyg,null,null,2,82,right,varied,800,0,undefined,-800,FALSE,1200,focus,yes,393309,Chrome,89,Windows,10,undefined,undefined,1500 x 1000,1500 x 1000
ntyg,null,null,2,83,right,varied,600,0,undefined,-600,FALSE,1400,focus,yes,397717,Chrome,89,Windows,10,undefined,undefined,1500 x 1000,1500 x 1000
ntyg,null,null,2,84,left,varied,400,0,undefined,-400,FALSE,1300,focus,yes,401724,Chrome,89,Windows,10,undefined,undefined,1500 x 1000,1500 x 1000
ntyg,null,null,2,85,left,varied,1000,0,undefined,-1000,FALSE,1100,focus,yes,405931,Chrome,89,Windows,10,undefined,undefined,1500 x 1000,1500 x 1000
ntyg,null,null,2,86,right,varied,200,0,undefined,-200,FALSE,1100,focus,yes,409340,Chrome,89,Windows,10,undefined,undefined,1500 x 1000,1500 x 1000
ntyg,null,null,2,87,right,varied,400,0,undefined,-400,FALSE,1300,focus,yes,413348,Chrome,89,Windows,10,undefined,undefined,1500 x 1000,1500 x 1000
ntyg,null,null,2,88,left,varied,600,0,undefined,-600,FALSE,1500,focus,yes,417956,Chrome,89,Windows,10,undefined,undefined,1500 x 1000,1500 x 1000
ntyg,null,null,2,89,left,varied,600,0,undefined,-600,FALSE,1300,focus,yes,422166,Chrome,89,Windows,10,undefined,undefined,1500 x 1000,1500 x 1000
ntyg,null,null,2,90,right,varied,800,0,rightarrow,401,TRUE,1300,focus,yes,425973,Chrome,89,Windows,10,undefined,undefined,1500 x 1000,1500 x 1000
ntyg,null,null,2,91,left,varied,200,0,leftarrow,381,TRUE,1200,focus,yes,428959,Chrome,89,Windows,10,undefined,undefined,1500 x 1000,1500 x 1000
ntyg,null,null,2,92,right,varied,800,0,rightarrow,285,TRUE,1300,focus,yes,432651,Chrome,89,Windows,10,undefined,undefined,1500 x 1000,1500 x 1000
ntyg,null,null,2,93,right,varied,1000,0,undefined,-1000,FALSE,1300,focus,yes,437257,Chrome,89,Windows,10,undefined,undefined,1500 x 1000,1500 x 1000
ntyg,null,null,2,94,left,varied,600,0,leftarrow,297,TRUE,1200,focus,yes,441763,Chrome,89,Windows,10,undefined,undefined,1500 x 1000,1500 x 1000
ntyg,null,null,2,95,right,varied,200,0,rightarrow,329,TRUE,1500,focus,yes,445300,Chrome,89,Windows,10,undefined,undefined,1500 x 1000,1500 x 1000
ntyg,null,null,2,96,left,varied,400,0,leftarrow,354,TRUE,1000,focus,yes,448059,Chrome,89,Windows,10,undefined,undefined,1500 x 1000,1500 x 1000
ntyg,null,null,2,97,right,varied,800,0,rightarrow,330,TRUE,1200,focus,yes,451597,Chrome,89,Windows,10,undefined,undefined,1500 x 1000,1500 x 1000
ntyg,null,null,2,98,left,varied,400,0,leftarrow,397,TRUE,1300,focus,yes,454998,Chrome,89,Windows,10,undefined,undefined,1500 x 1000,1500 x 1000
ntyg,null,null,2,99,left,varied,1000,0,leftarrow,452,TRUE,1200,focus,yes,458856,Chrome,89,Windows,10,undefined,undefined,1500 x 1000,1500 x 1000
ntyg,null,null,2,100,right,varied,800,0,rightarrow,399,TRUE,1000,focus,yes,462062,Chrome,89,Windows,10,undefined,undefined,1500 x 1000,1500 x 1000
ntyg,null,null,2,101,left,varied,600,0,rightarrow,-55,FALSE,1500,focus,yes,465614,Chrome,89,Windows,10,undefined,undefined,1500 x 1000,1500 x 1000
ntyg,null,null,2,102,right,varied,800,0,rightarrow,381,TRUE,1100,focus,yes,469001,Chrome,89,Windows,10,undefined,undefined,1500 x 1000,1500 x 1000
ntyg,null,null,2,103,left,varied,200,0,leftarrow,315,TRUE,1500,focus,yes,472521,Chrome,89,Windows,10,undefined,undefined,1500 x 1000,1500 x 1000
ntyg,null,null,2,104,right,varied,800,0,rightarrow,459,TRUE,1300,focus,yes,476388,Chrome,89,Windows,10,undefined,undefined,1500 x 1000,1500 x 1000
ntyg,null,null,2,105,right,varied,400,0,rightarrow,377,TRUE,1200,focus,yes,479570,Chrome,89,Windows,10,undefined,undefined,1500 x 1000,1500 x 1000
ntyg,null,null,2,106,left,varied,800,0,leftarrow,251,TRUE,1200,focus,yes,483028,Chrome,89,Windows,10,undefined,undefined,1500 x 1000,1500 x 1000
ntyg,null,null,2,107,right,varied,800,0,rightarrow,283,TRUE,1400,focus,yes,486917,Chrome,89,Windows,10,undefined,undefined,1500 x 1000,1500 x 1000
ntyg,null,null,2,108,left,varied,1000,0,leftarrow,308,TRUE,1400,focus,yes,491031,Chrome,89,Windows,10,undefined,undefined,1500 x 1000,1500 x 1000
ntyg,null,null,2,109,right,varied,800,0,rightarrow,335,TRUE,1000,focus,yes,494172,Chrome,89,Windows,10,undefined,undefined,1500 x 1000,1500 x 1000
ntyg,null,null,2,110,left,varied,200,0,leftarrow,319,TRUE,1300,focus,yes,497298,Chrome,89,Windows,10,undefined,undefined,1500 x 1000,1500 x 1000
ntyg,null,null,2,111,left,varied,600,0,leftarrow,497,TRUE,1300,focus,yes,501001,Chrome,89,Windows,10,undefined,undefined,1500 x 1000,1500 x 1000
ntyg,null,null,2,112,right,varied,600,0,rightarrow,674,TRUE,1100,focus,yes,504482,Chrome,89,Windows,10,undefined,undefined,1500 x 1000,1500 x 1000
ntyg,null,null,2,113,right,varied,1000,0,rightarrow,347,TRUE,1500,focus,yes,508836,Chrome,89,Windows,10,undefined,undefined,1500 x 1000,1500 x 1000
ntyg,null,null,2,114,left,varied,400,0,leftarrow,547,TRUE,1300,focus,yes,512389,Chrome,89,Windows,10,undefined,undefined,1500 x 1000,1500 x 1000
ntyg,null,null,2,115,right,varied,800,0,rightarrow,338,TRUE,1500,focus,yes,516533,Chrome,89,Windows,10,undefined,undefined,1500 x 1000,1500 x 1000
ntyg,null,null,2,116,left,varied,1000,0,leftarrow,326,TRUE,1000,focus,yes,519865,Chrome,89,Windows,10,undefined,undefined,1500 x 1000,1500 x 1000
ntyg,null,null,2,117,left,varied,800,0,leftarrow,403,TRUE,1400,focus,yes,523875,Chrome,89,Windows,10,undefined,undefined,1500 x 1000,1500 x 1000
ntyg,null,null,2,118,right,varied,800,0,leftarrow,365,FALSE,1400,focus,yes,527848,Chrome,89,Windows,10,undefined,undefined,1500 x 1000,1500 x 1000
ntyg,null,null,2,119,left,varied,800,0,leftarrow,920,TRUE,1100,focus,yes,532875,Chrome,89,Windows,10,undefined,undefined,1500 x 1000,1500 x 1000
ntyg,null,null,2,120,right,varied,200,0,rightarrow,352,TRUE,1000,focus,yes,535433,Chrome,89,Windows,10,undefined,undefined,1500 x 1000,1500 x 1000
ntyg,null,null,3,121,right,fixed-blank,300,300,rightarrow,327,TRUE,1300,focus,yes,593959,Chrome,89,Windows,10,undefined,undefined,1500 x 1000,1500 x 1000
ntyg,null,null,3,122,left,fixed-blank,300,300,leftarrow,302,TRUE,1100,focus,yes,597067,Chrome,89,Windows,10,undefined,undefined,1500 x 1000,1500 x 1000
ntyg,null,null,3,123,left,fixed-blank,300,300,leftarrow,374,TRUE,1200,focus,yes,600449,Chrome,89,Windows,10,undefined,undefined,1500 x 1000,1500 x 1000
ntyg,null,null,3,124,right,fixed-blank,300,300,rightarrow,282,TRUE,1200,focus,yes,603737,Chrome,89,Windows,10,undefined,undefined,1500 x 1000,1500 x 1000
ntyg,null,null,3,125,left,fixed-blank,300,300,leftarrow,297,TRUE,1500,focus,yes,607640,Chrome,89,Windows,10,undefined,undefined,1500 x 1000,1500 x 1000
ntyg,null,null,3,126,right,fixed-blank,300,300,rightarrow,275,TRUE,1000,focus,yes,610521,Chrome,89,Windows,10,undefined,undefined,1500 x 1000,1500 x 1000
ntyg,null,null,3,127,right,fixed-blank,300,300,rightarrow,369,TRUE,1500,focus,yes,614497,Chrome,89,Windows,10,undefined,undefined,1500 x 1000,1500 x 1000
ntyg,null,null,3,128,left,fixed-blank,300,300,leftarrow,427,TRUE,1000,focus,yes,617531,Chrome,89,Windows,10,undefined,undefined,1500 x 1000,1500 x 1000
ntyg,null,null,3,129,left,fixed-blank,300,300,rightarrow,288,FALSE,1400,focus,yes,621224,Chrome,89,Windows,10,undefined,undefined,1500 x 1000,1500 x 1000
ntyg,null,null,3,130,right,fixed-blank,300,300,rightarrow,372,TRUE,1300,focus,yes,624802,Chrome,89,Windows,10,undefined,undefined,1500 x 1000,1500 x 1000
ntyg,null,null,3,131,left,fixed-blank,300,300,leftarrow,288,TRUE,1200,focus,yes,628097,Chrome,89,Windows,10,undefined,undefined,1500 x 1000,1500 x 1000
ntyg,null,null,3,132,right,fixed-blank,300,300,rightarrow,450,TRUE,1500,focus,yes,632155,Chrome,89,Windows,10,undefined,undefined,1500 x 1000,1500 x 1000
ntyg,null,null,3,133,left,fixed-blank,300,300,leftarrow,333,TRUE,1400,focus,yes,635894,Chrome,89,Windows,10,undefined,undefined,1500 x 1000,1500 x 1000
ntyg,null,null,3,134,right,fixed-blank,300,300,rightarrow,327,TRUE,1000,focus,yes,638827,Chrome,89,Windows,10,undefined,undefined,1500 x 1000,1500 x 1000
ntyg,null,null,3,135,right,fixed-blank,300,300,undefined,-600,FALSE,1000,focus,yes,642436,Chrome,89,Windows,10,undefined,undefined,1500 x 1000,1500 x 1000
ntyg,null,null,3,136,left,fixed-blank,300,300,leftarrow,299,TRUE,1000,focus,yes,646342,Chrome,89,Windows,10,undefined,undefined,1500 x 1000,1500 x 1000
ntyg,null,null,3,137,right,fixed-blank,300,300,rightarrow,256,TRUE,1100,focus,yes,649406,Chrome,89,Windows,10,undefined,undefined,1500 x 1000,1500 x 1000
ntyg,null,null,3,138,left,fixed-blank,300,300,leftarrow,336,TRUE,1400,focus,yes,653148,Chrome,89,Windows,10,undefined,undefined,1500 x 1000,1500 x 1000
ntyg,null,null,3,139,left,fixed-blank,300,300,leftarrow,379,TRUE,1200,focus,yes,656534,Chrome,89,Windows,10,undefined,undefined,1500 x 1000,1500 x 1000
ntyg,null,null,3,140,right,fixed-blank,300,300,rightarrow,326,TRUE,1100,focus,yes,659666,Chrome,89,Windows,10,undefined,undefined,1500 x 1000,1500 x 1000
ntyg,null,null,3,141,right,fixed-blank,300,300,rightarrow,376,TRUE,1200,focus,yes,663050,Chrome,89,Windows,10,undefined,undefined,1500 x 1000,1500 x 1000
ntyg,null,null,3,142,left,fixed-blank,300,300,leftarrow,296,TRUE,1200,focus,yes,666354,Chrome,89,Windows,10,undefined,undefined,1500 x 1000,1500 x 1000
ntyg,null,null,3,143,left,fixed-blank,300,300,leftarrow,354,TRUE,1400,focus,yes,670114,Chrome,89,Windows,10,undefined,undefined,1500 x 1000,1500 x 1000
ntyg,null,null,3,144,right,fixed-blank,300,300,undefined,-600,FALSE,1500,focus,yes,674723,Chrome,89,Windows,10,undefined,undefined,1500 x 1000,1500 x 1000
ntyg,null,null,3,145,left,fixed-blank,300,300,leftarrow,275,TRUE,1200,focus,yes,679205,Chrome,89,Windows,10,undefined,undefined,1500 x 1000,1500 x 1000
ntyg,null,null,3,146,right,fixed-blank,300,300,rightarrow,298,TRUE,1100,focus,yes,682310,Chrome,89,Windows,10,undefined,undefined,1500 x 1000,1500 x 1000
ntyg,null,null,3,147,left,fixed-blank,300,300,leftarrow,266,TRUE,1200,focus,yes,685582,Chrome,89,Windows,10,undefined,undefined,1500 x 1000,1500 x 1000
ntyg,null,null,3,148,right,fixed-blank,300,300,rightarrow,122,TRUE,1300,focus,yes,688910,Chrome,89,Windows,10,undefined,undefined,1500 x 1000,1500 x 1000
ntyg,null,null,3,149,left,fixed-blank,300,300,leftarrow,266,TRUE,1200,focus,yes,692183,Chrome,89,Windows,10,undefined,undefined,1500 x 1000,1500 x 1000
ntyg,null,null,3,150,right,fixed-blank,300,300,rightarrow,255,TRUE,1100,focus,yes,695246,Chrome,89,Windows,10,undefined,undefined,1500 x 1000,1500 x 1000
ntyg,null,null,3,151,right,fixed-blank,300,300,rightarrow,407,TRUE,1300,focus,yes,698860,Chrome,89,Windows,10,undefined,undefined,1500 x 1000,1500 x 1000
ntyg,null,null,3,152,left,fixed-blank,300,300,leftarrow,328,TRUE,1200,focus,yes,702194,Chrome,89,Windows,10,undefined,undefined,1500 x 1000,1500 x 1000
ntyg,null,null,3,153,left,fixed-blank,300,300,leftarrow,305,TRUE,1200,focus,yes,705505,Chrome,89,Windows,10,undefined,undefined,1500 x 1000,1500 x 1000
ntyg,null,null,3,154,right,fixed-blank,300,300,rightarrow,250,TRUE,1000,focus,yes,708363,Chrome,89,Windows,10,undefined,undefined,1500 x 1000,1500 x 1000
ntyg,null,null,3,155,left,fixed-blank,300,300,leftarrow,231,TRUE,1100,focus,yes,711399,Chrome,89,Windows,10,undefined,undefined,1500 x 1000,1500 x 1000
ntyg,null,null,3,156,right,fixed-blank,300,300,rightarrow,252,TRUE,1100,focus,yes,714457,Chrome,89,Windows,10,undefined,undefined,1500 x 1000,1500 x 1000
ntyg,null,null,3,157,left,fixed-blank,300,300,leftarrow,379,TRUE,1200,focus,yes,717843,Chrome,89,Windows,10,undefined,undefined,1500 x 1000,1500 x 1000
ntyg,null,null,3,158,right,fixed-blank,300,300,rightarrow,276,TRUE,1500,focus,yes,721726,Chrome,89,Windows,10,undefined,undefined,1500 x 1000,1500 x 1000
ntyg,null,null,3,159,right,fixed-blank,300,300,undefined,-600,FALSE,1200,focus,yes,725734,Chrome,89,Windows,10,undefined,undefined,1500 x 1000,1500 x 1000
ntyg,null,null,3,160,left,fixed-blank,300,300,leftarrow,391,TRUE,1500,focus,yes,729734,Chrome,89,Windows,10,undefined,undefined,1500 x 1000,1500 x 1000
ntyg,null,null,3,161,right,fixed-blank,300,300,rightarrow,358,TRUE,1000,focus,yes,732696,Chrome,89,Windows,10,undefined,undefined,1500 x 1000,1500 x 1000
ntyg,null,null,3,162,left,fixed-blank,300,300,leftarrow,310,TRUE,1300,focus,yes,736213,Chrome,89,Windows,10,undefined,undefined,1500 x 1000,1500 x 1000
ntyg,null,null,3,163,left,fixed-blank,300,300,leftarrow,334,TRUE,1100,focus,yes,739353,Chrome,89,Windows,10,undefined,undefined,1500 x 1000,1500 x 1000
ntyg,null,null,3,164,right,fixed-blank,300,300,rightarrow,443,TRUE,1100,focus,yes,742603,Chrome,89,Windows,10,undefined,undefined,1500 x 1000,1500 x 1000
ntyg,null,null,3,165,right,fixed-blank,300,300,rightarrow,367,TRUE,1000,focus,yes,745577,Chrome,89,Windows,10,undefined,undefined,1500 x 1000,1500 x 1000
ntyg,null,null,3,166,left,fixed-blank,300,300,leftarrow,290,TRUE,1300,focus,yes,749073,Chrome,89,Windows,10,undefined,undefined,1500 x 1000,1500 x 1000
ntyg,null,null,3,167,right,fixed-blank,300,300,rightarrow,270,TRUE,1300,focus,yes,752549,Chrome,89,Windows,10,undefined,undefined,1500 x 1000,1500 x 1000
ntyg,null,null,3,168,left,fixed-blank,300,300,leftarrow,347,TRUE,1200,focus,yes,755903,Chrome,89,Windows,10,undefined,undefined,1500 x 1000,1500 x 1000
ntyg,null,null,3,169,right,fixed-blank,300,300,rightarrow,245,TRUE,1200,focus,yes,759154,Chrome,89,Windows,10,undefined,undefined,1500 x 1000,1500 x 1000
ntyg,null,null,3,170,left,fixed-blank,300,300,leftarrow,54,TRUE,1200,focus,yes,762214,Chrome,89,Windows,10,undefined,undefined,1500 x 1000,1500 x 1000
ntyg,null,null,4,171,right,fixed-filled,600,0,rightarrow,382,TRUE,1500,focus,yes,781055,Chrome,89,Windows,10,undefined,undefined,1500 x 1000,1500 x 1000
ntyg,null,null,4,172,left,fixed-filled,600,0,leftarrow,358,TRUE,1000,focus,yes,784020,Chrome,89,Windows,10,undefined,undefined,1500 x 1000,1500 x 1000
ntyg,null,null,4,173,right,fixed-filled,600,0,rightarrow,385,TRUE,1100,focus,yes,787210,Chrome,89,Windows,10,undefined,undefined,1500 x 1000,1500 x 1000
ntyg,null,null,4,174,left,fixed-filled,600,0,leftarrow,312,TRUE,1200,focus,yes,790530,Chrome,89,Windows,10,undefined,undefined,1500 x 1000,1500 x 1000
ntyg,null,null,4,175,left,fixed-filled,600,0,leftarrow,346,TRUE,1300,focus,yes,794082,Chrome,89,Windows,10,undefined,undefined,1500 x 1000,1500 x 1000
ntyg,null,null,4,176,right,fixed-filled,600,0,leftarrow,354,FALSE,1500,focus,yes,798042,Chrome,89,Windows,10,undefined,undefined,1500 x 1000,1500 x 1000
ntyg,null,null,4,177,right,fixed-filled,600,0,rightarrow,414,TRUE,1500,focus,yes,803564,Chrome,89,Windows,10,undefined,undefined,1500 x 1000,1500 x 1000
ntyg,null,null,4,178,left,fixed-filled,600,0,leftarrow,319,TRUE,1000,focus,yes,806490,Chrome,89,Windows,10,undefined,undefined,1500 x 1000,1500 x 1000
ntyg,null,null,4,179,left,fixed-filled,600,0,leftarrow,385,TRUE,1300,focus,yes,810081,Chrome,89,Windows,10,undefined,undefined,1500 x 1000,1500 x 1000
ntyg,null,null,4,180,right,fixed-filled,600,0,rightarrow,382,TRUE,1500,focus,yes,814070,Chrome,89,Windows,10,undefined,undefined,1500 x 1000,1500 x 1000
ntyg,null,null,4,181,left,fixed-filled,600,0,leftarrow,398,TRUE,1400,focus,yes,817875,Chrome,89,Windows,10,undefined,undefined,1500 x 1000,1500 x 1000
ntyg,null,null,4,182,right,fixed-filled,600,0,rightarrow,431,TRUE,1000,focus,yes,820913,Chrome,89,Windows,10,undefined,undefined,1500 x 1000,1500 x 1000
ntyg,null,null,4,183,right,fixed-filled,600,0,rightarrow,497,TRUE,1300,focus,yes,824617,Chrome,89,Windows,10,undefined,undefined,1500 x 1000,1500 x 1000
ntyg,null,null,4,184,left,fixed-filled,600,0,leftarrow,308,TRUE,1200,focus,yes,827930,Chrome,89,Windows,10,undefined,undefined,1500 x 1000,1500 x 1000
ntyg,null,null,4,185,right,fixed-filled,600,0,rightarrow,331,TRUE,1300,focus,yes,831468,Chrome,89,Windows,10,undefined,undefined,1500 x 1000,1500 x 1000
ntyg,null,null,4,186,left,fixed-filled,600,0,leftarrow,374,TRUE,1000,focus,yes,834451,Chrome,89,Windows,10,undefined,undefined,1500 x 1000,1500 x 1000
ntyg,null,null,4,187,right,fixed-filled,600,0,rightarrow,293,TRUE,1400,focus,yes,838150,Chrome,89,Windows,10,undefined,undefined,1500 x 1000,1500 x 1000
ntyg,null,null,4,188,left,fixed-filled,600,0,leftarrow,270,TRUE,1200,focus,yes,841428,Chrome,89,Windows,10,undefined,undefined,1500 x 1000,1500 x 1000
ntyg,null,null,4,189,left,fixed-filled,600,0,rightarrow,310,FALSE,1200,focus,yes,844744,Chrome,89,Windows,10,undefined,undefined,1500 x 1000,1500 x 1000
ntyg,null,null,4,190,right,fixed-filled,600,0,rightarrow,317,TRUE,1400,focus,yes,849872,Chrome,89,Windows,10,undefined,undefined,1500 x 1000,1500 x 1000
ntyg,null,null,4,191,right,fixed-filled,600,0,rightarrow,345,TRUE,1500,focus,yes,853823,Chrome,89,Windows,10,undefined,undefined,1500 x 1000,1500 x 1000
ntyg,null,null,4,192,left,fixed-filled,600,0,leftarrow,298,TRUE,1000,focus,yes,856727,Chrome,89,Windows,10,undefined,undefined,1500 x 1000,1500 x 1000
ntyg,null,null,4,193,right,fixed-filled,600,0,rightarrow,327,TRUE,1300,focus,yes,860262,Chrome,89,Windows,10,undefined,undefined,1500 x 1000,1500 x 1000
ntyg,null,null,4,194,left,fixed-filled,600,0,leftarrow,423,TRUE,1100,focus,yes,863494,Chrome,89,Windows,10,undefined,undefined,1500 x 1000,1500 x 1000
ntyg,null,null,4,195,left,fixed-filled,600,0,leftarrow,427,TRUE,1500,focus,yes,867527,Chrome,89,Windows,10,undefined,undefined,1500 x 1000,1500 x 1000
ntyg,null,null,4,196,right,fixed-filled,600,0,rightarrow,412,TRUE,1200,focus,yes,870947,Chrome,89,Windows,10,undefined,undefined,1500 x 1000,1500 x 1000
ntyg,null,null,4,197,right,fixed-filled,600,0,rightarrow,354,TRUE,1500,focus,yes,874909,Chrome,89,Windows,10,undefined,undefined,1500 x 1000,1500 x 1000
ntyg,null,null,4,198,left,fixed-filled,600,0,leftarrow,300,TRUE,1200,focus,yes,878215,Chrome,89,Windows,10,undefined,undefined,1500 x 1000,1500 x 1000
ntyg,null,null,4,199,right,fixed-filled,600,0,rightarrow,294,TRUE,1300,focus,yes,881715,Chrome,89,Windows,10,undefined,undefined,1500 x 1000,1500 x 1000
ntyg,null,null,4,200,left,fixed-filled,600,0,leftarrow,292,TRUE,1300,focus,yes,885216,Chrome,89,Windows,10,undefined,undefined,1500 x 1000,1500 x 1000
ntyg,null,null,4,201,left,fixed-filled,600,0,leftarrow,335,TRUE,1000,focus,yes,888158,Chrome,89,Windows,10,undefined,undefined,1500 x 1000,1500 x 1000
ntyg,null,null,4,202,right,fixed-filled,600,0,rightarrow,342,TRUE,1200,focus,yes,891507,Chrome,89,Windows,10,undefined,undefined,1500 x 1000,1500 x 1000
ntyg,null,null,4,203,right,fixed-filled,600,0,rightarrow,343,TRUE,1200,focus,yes,894857,Chrome,89,Windows,10,undefined,undefined,1500 x 1000,1500 x 1000
ntyg,null,null,4,204,left,fixed-filled,600,0,leftarrow,368,TRUE,1200,focus,yes,898233,Chrome,89,Windows,10,undefined,undefined,1500 x 1000,1500 x 1000
ntyg,null,null,4,205,right,fixed-filled,600,0,rightarrow,370,TRUE,1400,focus,yes,902009,Chrome,89,Windows,10,undefined,undefined,1500 x 1000,1500 x 1000
ntyg,null,null,4,206,left,fixed-filled,600,0,leftarrow,429,TRUE,1300,focus,yes,905645,Chrome,89,Windows,10,undefined,undefined,1500 x 1000,1500 x 1000
ntyg,null,null,4,207,right,fixed-filled,600,0,rightarrow,371,TRUE,1200,focus,yes,909023,Chrome,89,Windows,10,undefined,undefined,1500 x 1000,1500 x 1000
ntyg,null,null,4,208,left,fixed-filled,600,0,leftarrow,357,TRUE,1200,focus,yes,912386,Chrome,89,Windows,10,undefined,undefined,1500 x 1000,1500 x 1000
ntyg,null,null,4,209,right,fixed-filled,600,0,rightarrow,338,TRUE,1300,focus,yes,915931,Chrome,89,Windows,10,undefined,undefined,1500 x 1000,1500 x 1000
ntyg,null,null,4,210,left,fixed-filled,600,0,leftarrow,384,TRUE,1200,focus,yes,919322,Chrome,89,Windows,10,undefined,undefined,1500 x 1000,1500 x 1000
ntyg,null,null,4,211,left,fixed-filled,600,0,leftarrow,364,TRUE,1000,focus,yes,922293,Chrome,89,Windows,10,undefined,undefined,1500 x 1000,1500 x 1000
ntyg,null,null,4,212,right,fixed-filled,600,0,rightarrow,334,TRUE,1400,focus,yes,926033,Chrome,89,Windows,10,undefined,undefined,1500 x 1000,1500 x 1000
ntyg,null,null,4,213,right,fixed-filled,600,0,rightarrow,424,TRUE,1100,focus,yes,929263,Chrome,89,Windows,10,undefined,undefined,1500 x 1000,1500 x 1000
ntyg,null,null,4,214,left,fixed-filled,600,0,leftarrow,511,TRUE,1200,focus,yes,932780,Chrome,89,Windows,10,undefined,undefined,1500 x 1000,1500 x 1000
ntyg,null,null,4,215,right,fixed-filled,600,0,leftarrow,352,FALSE,1400,focus,yes,936539,Chrome,89,Windows,10,undefined,undefined,1500 x 1000,1500 x 1000
ntyg,null,null,4,216,left,fixed-filled,600,0,leftarrow,423,TRUE,1300,focus,yes,941471,Chrome,89,Windows,10,undefined,undefined,1500 x 1000,1500 x 1000
ntyg,null,null,4,217,right,fixed-filled,600,0,rightarrow,411,TRUE,1000,focus,yes,944489,Chrome,89,Windows,10,undefined,undefined,1500 x 1000,1500 x 1000
ntyg,null,null,4,218,left,fixed-filled,600,0,leftarrow,393,TRUE,1000,focus,yes,947489,Chrome,89,Windows,10,undefined,undefined,1500 x 1000,1500 x 1000
ntyg,null,null,4,219,left,fixed-filled,600,0,leftarrow,449,TRUE,1300,focus,yes,951146,Chrome,89,Windows,10,undefined,undefined,1500 x 1000,1500 x 1000
ntyg,null,null,4,220,right,fixed-filled,600,0,rightarrow,410,TRUE,1100,focus,yes,954364,Chrome,89,Windows,10,undefined,undefined,1500 x 1000,1500 x 1000
ntyg,null,null,5,221,right,varied,400,0,rightarrow,401,TRUE,1300,focus,yes,967864,Chrome,89,Windows,10,undefined,undefined,1500 x 1000,1500 x 1000
ntyg,null,null,5,222,left,varied,1000,0,leftarrow,304,TRUE,1400,focus,yes,971974,Chrome,89,Windows,10,undefined,undefined,1500 x 1000,1500 x 1000
ntyg,null,null,5,223,left,varied,600,0,leftarrow,501,TRUE,1000,focus,yes,975081,Chrome,89,Windows,10,undefined,undefined,1500 x 1000,1500 x 1000
ntyg,null,null,5,224,right,varied,400,0,rightarrow,380,TRUE,1200,focus,yes,978268,Chrome,89,Windows,10,undefined,undefined,1500 x 1000,1500 x 1000
ntyg,null,null,5,225,left,varied,600,0,leftarrow,508,TRUE,1300,focus,yes,981983,Chrome,89,Windows,10,undefined,undefined,1500 x 1000,1500 x 1000
ntyg,null,null,5,226,right,varied,600,0,rightarrow,451,TRUE,1400,focus,yes,985841,Chrome,89,Windows,10,undefined,undefined,1500 x 1000,1500 x 1000
ntyg,null,null,5,227,right,varied,200,0,rightarrow,380,TRUE,1200,focus,yes,988828,Chrome,89,Windows,10,undefined,undefined,1500 x 1000,1500 x 1000
ntyg,null,null,5,228,left,varied,200,0,leftarrow,408,TRUE,1100,focus,yes,991643,Chrome,89,Windows,10,undefined,undefined,1500 x 1000,1500 x 1000
ntyg,null,null,5,229,left,varied,200,0,leftarrow,481,TRUE,1000,focus,yes,994330,Chrome,89,Windows,10,undefined,undefined,1500 x 1000,1500 x 1000
ntyg,null,null,5,230,right,varied,600,0,rightarrow,343,TRUE,1100,focus,yes,997478,Chrome,89,Windows,10,undefined,undefined,1500 x 1000,1500 x 1000
ntyg,null,null,5,231,left,varied,800,0,leftarrow,443,TRUE,1300,focus,yes,1001326,Chrome,89,Windows,10,undefined,undefined,1500 x 1000,1500 x 1000
ntyg,null,null,5,232,right,varied,200,0,rightarrow,445,TRUE,1300,focus,yes,1004579,Chrome,89,Windows,10,undefined,undefined,1500 x 1000,1500 x 1000
ntyg,null,null,5,233,left,varied,600,0,leftarrow,496,TRUE,1200,focus,yes,1008083,Chrome,89,Windows,10,undefined,undefined,1500 x 1000,1500 x 1000
ntyg,null,null,5,234,right,varied,400,0,rightarrow,356,TRUE,1300,focus,yes,1011445,Chrome,89,Windows,10,undefined,undefined,1500 x 1000,1500 x 1000
ntyg,null,null,5,235,right,varied,200,0,rightarrow,561,TRUE,1200,focus,yes,1014613,Chrome,89,Windows,10,undefined,undefined,1500 x 1000,1500 x 1000
ntyg,null,null,5,236,left,varied,1000,0,leftarrow,343,TRUE,1500,focus,yes,1018965,Chrome,89,Windows,10,undefined,undefined,1500 x 1000,1500 x 1000
ntyg,null,null,5,237,right,varied,600,0,rightarrow,358,TRUE,1300,focus,yes,1022529,Chrome,89,Windows,10,undefined,undefined,1500 x 1000,1500 x 1000
ntyg,null,null,5,238,left,varied,400,0,leftarrow,371,TRUE,1300,focus,yes,1025908,Chrome,89,Windows,10,undefined,undefined,1500 x 1000,1500 x 1000
ntyg,null,null,5,239,left,varied,1000,0,leftarrow,389,TRUE,1000,focus,yes,1029303,Chrome,89,Windows,10,undefined,undefined,1500 x 1000,1500 x 1000
ntyg,null,null,5,240,right,varied,600,0,rightarrow,312,TRUE,1500,focus,yes,1033223,Chrome,89,Windows,10,undefined,undefined,1500 x 1000,1500 x 1000
ntyg,null,null,5,241,right,varied,800,0,rightarrow,403,TRUE,1500,focus,yes,1037432,Chrome,89,Windows,10,undefined,undefined,1500 x 1000,1500 x 1000
ntyg,null,null,5,242,left,varied,200,0,leftarrow,329,TRUE,1100,focus,yes,1040170,Chrome,89,Windows,10,undefined,undefined,1500 x 1000,1500 x 1000
ntyg,null,null,5,243,right,varied,200,0,rightarrow,342,TRUE,1000,focus,yes,1042719,Chrome,89,Windows,10,undefined,undefined,1500 x 1000,1500 x 1000
ntyg,null,null,5,244,left,varied,1000,0,leftarrow,321,TRUE,1500,focus,yes,1047047,Chrome,89,Windows,10,undefined,undefined,1500 x 1000,1500 x 1000
ntyg,null,null,5,245,right,varied,1000,0,rightarrow,402,TRUE,1300,focus,yes,1051055,Chrome,89,Windows,10,undefined,undefined,1500 x 1000,1500 x 1000
ntyg,null,null,5,246,left,varied,400,0,leftarrow,383,TRUE,1500,focus,yes,1054845,Chrome,89,Windows,10,undefined,undefined,1500 x 1000,1500 x 1000
ntyg,null,null,5,247,right,varied,600,0,rightarrow,341,TRUE,1300,focus,yes,1058393,Chrome,89,Windows,10,undefined,undefined,1500 x 1000,1500 x 1000
ntyg,null,null,5,248,left,varied,200,0,leftarrow,471,TRUE,1000,focus,yes,1061070,Chrome,89,Windows,10,undefined,undefined,1500 x 1000,1500 x 1000
ntyg,null,null,5,249,right,varied,200,0,rightarrow,443,TRUE,1300,focus,yes,1064319,Chrome,89,Windows,10,undefined,undefined,1500 x 1000,1500 x 1000
ntyg,null,null,5,250,left,varied,400,0,leftarrow,354,TRUE,1100,focus,yes,1067280,Chrome,89,Windows,10,undefined,undefined,1500 x 1000,1500 x 1000
ntyg,null,null,5,251,left,varied,400,0,leftarrow,307,TRUE,1500,focus,yes,1070994,Chrome,89,Windows,10,undefined,undefined,1500 x 1000,1500 x 1000
ntyg,null,null,5,252,right,varied,800,0,rightarrow,386,TRUE,1100,focus,yes,1074388,Chrome,89,Windows,10,undefined,undefined,1500 x 1000,1500 x 1000
ntyg,null,null,5,253,left,varied,1000,0,leftarrow,409,TRUE,1300,focus,yes,1078404,Chrome,89,Windows,10,undefined,undefined,1500 x 1000,1500 x 1000
ntyg,null,null,5,254,right,varied,1000,0,rightarrow,757,TRUE,1000,focus,yes,1082167,Chrome,89,Windows,10,undefined,undefined,1500 x 1000,1500 x 1000
ntyg,null,null,5,255,left,varied,600,0,leftarrow,317,TRUE,1100,focus,yes,1085291,Chrome,89,Windows,10,undefined,undefined,1500 x 1000,1500 x 1000
ntyg,null,null,5,256,right,varied,600,0,rightarrow,396,TRUE,1400,focus,yes,1089094,Chrome,89,Windows,10,undefined,undefined,1500 x 1000,1500 x 1000
ntyg,null,null,5,257,left,varied,200,0,leftarrow,364,TRUE,1500,focus,yes,1092665,Chrome,89,Windows,10,undefined,undefined,1500 x 1000,1500 x 1000
ntyg,null,null,5,258,right,varied,800,0,rightarrow,355,TRUE,1300,focus,yes,1096427,Chrome,89,Windows,10,undefined,undefined,1500 x 1000,1500 x 1000
ntyg,null,null,5,259,right,varied,200,0,rightarrow,482,TRUE,1000,focus,yes,1099115,Chrome,89,Windows,10,undefined,undefined,1500 x 1000,1500 x 1000
ntyg,null,null,5,260,left,varied,800,0,leftarrow,335,TRUE,1100,focus,yes,1102457,Chrome,89,Windows,10,undefined,undefined,1500 x 1000,1500 x 1000
ntyg,null,null,5,261,left,varied,400,0,leftarrow,476,TRUE,1500,focus,yes,1106340,Chrome,89,Windows,10,undefined,undefined,1500 x 1000,1500 x 1000
ntyg,null,null,5,262,right,varied,200,0,rightarrow,476,TRUE,1200,focus,yes,1109422,Chrome,89,Windows,10,undefined,undefined,1500 x 1000,1500 x 1000
ntyg,null,null,5,263,right,varied,1000,0,leftarrow,358,FALSE,1100,focus,yes,1112987,Chrome,89,Windows,10,undefined,undefined,1500 x 1000,1500 x 1000
ntyg,null,null,5,264,left,varied,200,0,leftarrow,377,TRUE,1400,focus,yes,1117773,Chrome,89,Windows,10,undefined,undefined,1500 x 1000,1500 x 1000
ntyg,null,null,5,265,right,varied,800,0,rightarrow,452,TRUE,1200,focus,yes,1121432,Chrome,89,Windows,10,undefined,undefined,1500 x 1000,1500 x 1000
ntyg,null,null,5,266,left,varied,600,0,leftarrow,311,TRUE,1000,focus,yes,1124350,Chrome,89,Windows,10,undefined,undefined,1500 x 1000,1500 x 1000
ntyg,null,null,5,267,right,varied,200,0,rightarrow,381,TRUE,1000,focus,yes,1126938,Chrome,89,Windows,10,undefined,undefined,1500 x 1000,1500 x 1000
ntyg,null,null,5,268,left,varied,200,0,leftarrow,374,TRUE,1000,focus,yes,1129518,Chrome,89,Windows,10,undefined,undefined,1500 x 1000,1500 x 1000
ntyg,null,null,5,269,right,varied,400,0,rightarrow,335,TRUE,1300,focus,yes,1132860,Chrome,89,Windows,10,undefined,undefined,1500 x 1000,1500 x 1000
ntyg,null,null,5,270,left,varied,1000,0,leftarrow,316,TRUE,1100,focus,yes,1136384,Chrome,89,Windows,10,undefined,undefined,1500 x 1000,1500 x 1000
ntyg,null,null,6,271,left,fixed-blank,300,300,leftarrow,315,TRUE,1400,focus,yes,1151293,Chrome,89,Windows,10,undefined,undefined,1500 x 1000,1500 x 1000
ntyg,null,null,6,272,right,fixed-blank,300,300,rightarrow,362,TRUE,1000,focus,yes,1154263,Chrome,89,Windows,10,undefined,undefined,1500 x 1000,1500 x 1000
ntyg,null,null,6,273,right,fixed-blank,300,300,rightarrow,410,TRUE,1200,focus,yes,1157680,Chrome,89,Windows,10,undefined,undefined,1500 x 1000,1500 x 1000
ntyg,null,null,6,274,left,fixed-blank,300,300,leftarrow,442,TRUE,1100,focus,yes,1160930,Chrome,89,Windows,10,undefined,undefined,1500 x 1000,1500 x 1000
ntyg,null,null,6,275,right,fixed-blank,300,300,rightarrow,396,TRUE,1400,focus,yes,1164733,Chrome,89,Windows,10,undefined,undefined,1500 x 1000,1500 x 1000
ntyg,null,null,6,276,left,fixed-blank,300,300,leftarrow,388,TRUE,1200,focus,yes,1168129,Chrome,89,Windows,10,undefined,undefined,1500 x 1000,1500 x 1000
ntyg,null,null,6,277,left,fixed-blank,300,300,leftarrow,445,TRUE,1500,focus,yes,1172181,Chrome,89,Windows,10,undefined,undefined,1500 x 1000,1500 x 1000
ntyg,null,null,6,278,right,fixed-blank,300,300,rightarrow,362,TRUE,1500,focus,yes,1176150,Chrome,89,Windows,10,undefined,undefined,1500 x 1000,1500 x 1000
ntyg,null,null,6,279,left,fixed-blank,300,300,leftarrow,504,TRUE,1000,focus,yes,1179264,Chrome,89,Windows,10,undefined,undefined,1500 x 1000,1500 x 1000
ntyg,null,null,6,280,right,fixed-blank,300,300,rightarrow,435,TRUE,1400,focus,yes,1183105,Chrome,89,Windows,10,undefined,undefined,1500 x 1000,1500 x 1000
ntyg,null,null,6,281,right,fixed-blank,300,300,rightarrow,531,TRUE,1000,focus,yes,1186245,Chrome,89,Windows,10,undefined,undefined,1500 x 1000,1500 x 1000
ntyg,null,null,6,282,left,fixed-blank,300,300,leftarrow,480,TRUE,1500,focus,yes,1190331,Chrome,89,Windows,10,undefined,undefined,1500 x 1000,1500 x 1000
ntyg,null,null,6,283,left,fixed-blank,300,300,leftarrow,433,TRUE,1400,focus,yes,1194171,Chrome,89,Windows,10,undefined,undefined,1500 x 1000,1500 x 1000
ntyg,null,null,6,284,right,fixed-blank,300,300,rightarrow,343,TRUE,1100,focus,yes,1197322,Chrome,89,Windows,10,undefined,undefined,1500 x 1000,1500 x 1000
ntyg,null,null,6,285,left,fixed-blank,300,300,leftarrow,323,TRUE,1200,focus,yes,1200653,Chrome,89,Windows,10,undefined,undefined,1500 x 1000,1500 x 1000
ntyg,null,null,6,286,right,fixed-blank,300,300,rightarrow,372,TRUE,1100,focus,yes,1203832,Chrome,89,Windows,10,undefined,undefined,1500 x 1000,1500 x 1000
ntyg,null,null,6,287,left,fixed-blank,300,300,leftarrow,387,TRUE,1000,focus,yes,1206827,Chrome,89,Windows,10,undefined,undefined,1500 x 1000,1500 x 1000
ntyg,null,null,6,288,right,fixed-blank,300,300,rightarrow,429,TRUE,1200,focus,yes,1210262,Chrome,89,Windows,10,undefined,undefined,1500 x 1000,1500 x 1000
ntyg,null,null,6,289,right,fixed-blank,300,300,rightarrow,430,TRUE,1300,focus,yes,1213900,Chrome,89,Windows,10,undefined,undefined,1500 x 1000,1500 x 1000
ntyg,null,null,6,290,left,fixed-blank,300,300,leftarrow,409,TRUE,1000,focus,yes,1216917,Chrome,89,Windows,10,undefined,undefined,1500 x 1000,1500 x 1000
ntyg,null,null,6,291,right,fixed-blank,300,300,rightarrow,317,TRUE,1100,focus,yes,1220040,Chrome,89,Windows,10,undefined,undefined,1500 x 1000,1500 x 1000
ntyg,null,null,6,292,left,fixed-blank,300,300,leftarrow,281,TRUE,1000,focus,yes,1222930,Chrome,89,Windows,10,undefined,undefined,1500 x 1000,1500 x 1000
ntyg,null,null,6,293,left,fixed-blank,300,300,leftarrow,370,TRUE,1000,focus,yes,1225906,Chrome,89,Windows,10,undefined,undefined,1500 x 1000,1500 x 1000
ntyg,null,null,6,294,right,fixed-blank,300,300,rightarrow,307,TRUE,1000,focus,yes,1228821,Chrome,89,Windows,10,undefined,undefined,1500 x 1000,1500 x 1000
ntyg,null,null,6,295,right,fixed-blank,300,300,rightarrow,376,TRUE,1100,focus,yes,1232003,Chrome,89,Windows,10,undefined,undefined,1500 x 1000,1500 x 1000
ntyg,null,null,6,296,left,fixed-blank,300,300,leftarrow,429,TRUE,1200,focus,yes,1235440,Chrome,89,Windows,10,undefined,undefined,1500 x 1000,1500 x 1000
ntyg,null,null,6,297,right,fixed-blank,300,300,rightarrow,470,TRUE,1500,focus,yes,1239518,Chrome,89,Windows,10,undefined,undefined,1500 x 1000,1500 x 1000
ntyg,null,null,6,298,left,fixed-blank,300,300,leftarrow,306,TRUE,1500,focus,yes,1243430,Chrome,89,Windows,10,undefined,undefined,1500 x 1000,1500 x 1000
ntyg,null,null,6,299,right,fixed-blank,300,300,rightarrow,385,TRUE,1400,focus,yes,1247223,Chrome,89,Windows,10,undefined,undefined,1500 x 1000,1500 x 1000
ntyg,null,null,6,300,left,fixed-blank,300,300,leftarrow,412,TRUE,1000,focus,yes,1250243,Chrome,89,Windows,10,undefined,undefined,1500 x 1000,1500 x 1000
ntyg,null,null,6,301,right,fixed-blank,300,300,rightarrow,372,TRUE,1100,focus,yes,1253423,Chrome,89,Windows,10,undefined,undefined,1500 x 1000,1500 x 1000
ntyg,null,null,6,302,left,fixed-blank,300,300,leftarrow,371,TRUE,1400,focus,yes,1257201,Chrome,89,Windows,10,undefined,undefined,1500 x 1000,1500 x 1000
ntyg,null,null,6,303,right,fixed-blank,300,300,rightarrow,334,TRUE,1500,focus,yes,1261142,Chrome,89,Windows,10,undefined,undefined,1500 x 1000,1500 x 1000
ntyg,null,null,6,304,left,fixed-blank,300,300,leftarrow,305,TRUE,1400,focus,yes,1264855,Chrome,89,Windows,10,undefined,undefined,1500 x 1000,1500 x 1000
ntyg,null,null,6,305,right,fixed-blank,300,300,rightarrow,621,TRUE,1300,focus,yes,1268682,Chrome,89,Windows,10,undefined,undefined,1500 x 1000,1500 x 1000
ntyg,null,null,6,306,left,fixed-blank,300,300,leftarrow,353,TRUE,1300,focus,yes,1272241,Chrome,89,Windows,10,undefined,undefined,1500 x 1000,1500 x 1000
ntyg,null,null,6,307,right,fixed-blank,300,300,rightarrow,334,TRUE,1200,focus,yes,1275583,Chrome,89,Windows,10,undefined,undefined,1500 x 1000,1500 x 1000
ntyg,null,null,6,308,left,fixed-blank,300,300,leftarrow,340,TRUE,1100,focus,yes,1278731,Chrome,89,Windows,10,undefined,undefined,1500 x 1000,1500 x 1000
ntyg,null,null,6,309,left,fixed-blank,300,300,leftarrow,448,TRUE,1100,focus,yes,1281987,Chrome,89,Windows,10,undefined,undefined,1500 x 1000,1500 x 1000
ntyg,null,null,6,310,right,fixed-blank,300,300,rightarrow,364,TRUE,1300,focus,yes,1285558,Chrome,89,Windows,10,undefined,undefined,1500 x 1000,1500 x 1000
ntyg,null,null,6,311,left,fixed-blank,300,300,leftarrow,344,TRUE,1000,focus,yes,1288509,Chrome,89,Windows,10,undefined,undefined,1500 x 1000,1500 x 1000
ntyg,null,null,6,312,right,fixed-blank,300,300,rightarrow,591,TRUE,1500,focus,yes,1292708,Chrome,89,Windows,10,undefined,undefined,1500 x 1000,1500 x 1000
ntyg,null,null,6,313,left,fixed-blank,300,300,leftarrow,297,TRUE,1200,focus,yes,1296013,Chrome,89,Windows,10,undefined,undefined,1500 x 1000,1500 x 1000
ntyg,null,null,6,314,right,fixed-blank,300,300,rightarrow,332,TRUE,1200,focus,yes,1299353,Chrome,89,Windows,10,undefined,undefined,1500 x 1000,1500 x 1000
ntyg,null,null,6,315,left,fixed-blank,300,300,leftarrow,304,TRUE,1400,focus,yes,1303064,Chrome,89,Windows,10,undefined,undefined,1500 x 1000,1500 x 1000
ntyg,null,null,6,316,right,fixed-blank,300,300,rightarrow,353,TRUE,1500,focus,yes,1307023,Chrome,89,Windows,10,undefined,undefined,1500 x 1000,1500 x 1000
ntyg,null,null,6,317,left,fixed-blank,300,300,leftarrow,353,TRUE,1300,focus,yes,1310582,Chrome,89,Windows,10,undefined,undefined,1500 x 1000,1500 x 1000
ntyg,null,null,6,318,right,fixed-blank,300,300,rightarrow,407,TRUE,1200,focus,yes,1313996,Chrome,89,Windows,10,undefined,undefined,1500 x 1000,1500 x 1000
ntyg,null,null,6,319,left,fixed-blank,300,300,leftarrow,393,TRUE,1400,focus,yes,1317796,Chrome,89,Windows,10,undefined,undefined,1500 x 1000,1500 x 1000
ntyg,null,null,6,320,right,fixed-blank,300,300,rightarrow,362,TRUE,1100,focus,yes,1320965,Chrome,89,Windows,10,undefined,undefined,1500 x 1000,1500 x 1000
